trial,condition,eccentricity,magnitude,correct,srt_ms,keyboard_rt_ms,pre_change_ms,valid
1,control,5.0,20,1,98.585844039917,394.150972366333,1273,1
2,control,6.0,20,1,96.7092514038086,394.3963050842285,1001,1
3,control,7.0,20,1,99.18498992919922,494.163990020752,1460,1
4,control,8.0,20,1,100.30293464660645,991.175889968872,1027,1
5,control,9.0,20,1,592.339038848877,592.336893081665,1445,1
6,control,10.0,20,1,200.7441520690918,595.656156539917,985,1
7,control,11.0,20,1,493.43204498291016,493.4301376342773,1293,1
8,control,12.0,20,1,394.9141502380371,394.9120044708252,1102,1
9,control,13.0,20,1,1022.784948348999,1022.779941558838,866,1
10,control,14.0,20,1,493.563175201416,493.5591220855713,1419,1
11,control,15.0,20,1,627.4542808532715,627.4480819702148,804,1
12,control,16.0,20,1,692.5737857818604,692.5718784332275,1160,1
13,control,17.0,20,1,494.1999912261963,494.196891784668,1215,1
14,control,18.0,20,1,395.14899253845215,395.1468467712402,1081,1
15,control,19.0,20,1,525.6397724151611,525.6359577178955,897,1
16,control,20.0,20,1,494.2970275878906,494.2891597747803,926,1
17,control,21.0,20,1,493.7880039215088,493.786096572876,946,1
18,control,22.0,20,1,593.2900905609131,593.285083770752,1152,1
19,control,23.0,20,1,593.9390659332275,593.9359664916992,873,1
20,control,24.0,20,1,594.1989421844482,594.1939353942871,1211,1
21,control,25.0,20,1,593.2331085205078,593.2259559631348,1177,1
22,control,26.0,20,1,591.9351577758789,591.9291973114014,948,1
23,control,27.0,20,1,297.2562313079834,297.2540855407715,1418,1
24,control,28.0,20,1,593.425989151001,593.4219360351562,851,1
25,control,29.0,20,1,493.7410354614258,493.7379360198975,1405,1
26,control,30.0,20,1,595.4020023345947,595.3950881958008,1324,1
27,control,5.0,20,1,200.2580165863037,493.7279224395752,806,1
28,control,6.0,20,1,98.0987548828125,987.757921218872,833,1
29,control,7.0,20,1,1089.33687210083,1089.3349647521973,1207,1
30,control,8.0,20,1,99.9908447265625,891.2167549133301,1189,1
31,control,9.0,20,1,526.7772674560547,526.7751216888428,1382,1
32,control,10.0,20,1,98.52862358093262,394.7310447692871,866,1
33,control,11.0,20,1,890.3160095214844,890.3110027313232,1324,1
34,control,12.0,20,1,494.398832321167,494.3957328796387,1188,1
35,control,13.0,20,1,493.535041809082,493.5309886932373,1066,1
36,control,14.0,20,1,492.4299716949463,492.4261569976807,973,1
37,control,15.0,20,1,493.2119846343994,493.2103157043457,1389,1
38,control,16.0,20,1,492.5761222839356,492.5739765167236,1464,1
39,control,17.0,20,1,492.0461177825928,492.04421043396,929,1
40,control,18.0,20,1,594.1569805145264,594.1488742828369,957,1
41,control,19.0,20,1,493.9010143280029,493.8991069793701,850,1
42,control,20.0,20,1,395.0521945953369,395.050048828125,1380,1
43,control,21.0,20,1,492.20800399780273,492.2049045562744,944,1
44,control,22.0,20,1,525.4158973693848,525.4137516021729,1169,1
45,control,23.0,20,1,427.2921085357666,427.2911548614502,1083,1
46,control,24.0,20,1,493.168830871582,493.1669235229492,1130,1
47,control,25.0,20,1,594.0208435058594,594.0179824829102,1025,1
48,control,26.0,20,1,492.9656982421875,492.9628372192383,1163,1
49,control,27.0,20,1,493.9250946044922,493.9219951629639,966,1
50,control,28.0,20,1,396.4970111846924,396.4931964874268,921,1
51,control,29.0,20,1,494.0516948699951,494.0478801727295,1425,1
52,control,30.0,20,1,888.5838985443115,888.582706451416,1064,1
53,control,5.0,17,1,199.5108127593994,594.3827629089355,1263,1
54,control,6.0,17,1,100.33726692199708,395.9171772003174,824,1
55,control,7.0,17,1,98.56605529785156,890.6269073486328,1287,1
56,control,8.0,17,1,493.7610626220703,493.7570095062256,1073,1
57,control,9.0,17,1,593.4078693389893,593.4062004089355,1467,1
58,control,10.0,17,1,395.3208923339844,395.3189849853516,878,1
59,control,11.0,17,1,592.6861763000488,592.6840305328369,1476,1
60,control,12.0,17,1,493.3438301086426,493.33763122558594,910,1
61,control,13.0,17,1,893.0990695953369,893.0938243865967,1075,1
62,control,14.0,17,1,988.9020919799804,988.8923168182372,927,1
63,control,15.0,17,1,493.9179420471192,493.9148426055908,1288,1
64,control,16.0,17,1,494.3056106567383,494.30298805236816,1257,1
65,control,17.0,17,1,593.1968688964844,593.1951999664307,1215,1
66,control,18.0,17,1,495.4230785369873,495.4190254211426,820,1
67,control,19.0,17,1,493.5421943664551,493.5369491577149,1024,1
68,control,20.0,17,1,427.8008937835693,427.7992248535156,1074,1
69,control,21.0,17,1,394.1798210144043,394.1776752471924,800,1
70,control,22.0,17,1,493.1178092956543,493.1137561798096,1243,1
71,control,23.0,17,1,494.5299625396729,494.5259094238281,1381,1
72,control,24.0,17,1,494.556188583374,494.5542812347412,993,1
73,control,25.0,17,1,494.6601390838623,494.6560859680176,1326,1
74,control,26.0,17,1,493.87288093566895,493.8650131225586,1390,1
75,control,27.0,17,1,492.476224899292,492.4740791320801,1429,1
76,control,28.0,17,1,493.1519031524658,493.149995803833,1128,1
77,control,29.0,17,1,592.1111106872559,592.1030044555664,836,1
78,control,30.0,17,1,494.9231147766113,494.9209690093994,1318,1
79,control,5.0,17,1,199.7530460357666,494.0218925476074,1151,1
80,control,6.0,17,1,101.10807418823242,428.6859035491944,1425,1
81,control,7.0,17,1,131.3798427581787,526.6718864440918,1290,1
82,control,8.0,17,1,97.41902351379396,527.8151035308838,1293,1
83,control,9.0,17,1,429.3739795684815,429.3649196624756,1343,1
84,control,10.0,17,1,397.6409435272217,890.8271789550781,1393,1
85,control,11.0,17,1,493.58391761779785,493.58224868774414,895,1
86,control,12.0,17,1,494.22526359558105,494.218111038208,984,1
87,control,13.0,17,1,494.3737983703613,494.370698928833,1055,1
88,control,14.0,17,1,425.6911277770996,425.6882667541504,1203,1
89,control,15.0,17,1,526.8290042877197,526.8270969390869,848,1
90,control,16.0,17,1,526.9291400909424,526.9241333007812,1138,1
91,control,17.0,17,1,525.7399082183838,525.7372856140137,1199,1
92,control,18.0,17,1,595.1659679412842,595.1611995697021,865,1
93,control,19.0,17,1,492.7659034729004,492.76280403137207,1006,1
94,control,20.0,17,1,494.3118095397949,494.30394172668457,1068,1
95,control,21.0,17,1,398.46205711364746,398.4589576721192,1052,1
96,control,22.0,17,1,494.0612316131592,494.05694007873535,1438,1
97,control,23.0,17,1,695.5499649047852,695.5468654632568,1086,1
98,control,24.0,17,1,594.5351123809814,594.5262908935547,851,1
99,control,25.0,17,1,493.8488006591797,493.84188652038574,1277,0
100,control,25.0,17,1,494.2789077758789,494.2708015441895,1213,1
101,control,26.0,17,1,594.6340560913086,594.6319103240967,1102,1
102,control,27.0,17,1,493.3009147644043,493.2918548583984,1197,1
103,control,28.0,17,1,493.90602111816406,493.8979148864746,919,1
104,control,29.0,17,1,494.1720962524414,494.1670894622803,1362,1
105,control,30.0,17,1,494.9376583099365,494.9328899383545,1303,0
106,control,30.0,17,1,493.4718608856201,493.4699535369873,965,1
107,control,5.0,14,1,99.94125366210938,890.8112049102783,933,1
108,control,6.0,14,1,199.2812156677246,592.7762985229492,805,1
109,control,7.0,14,1,97.70488739013672,889.6350860595703,1389,1
110,control,8.0,14,1,98.80900382995604,493.40009689331055,1412,1
111,control,9.0,14,1,425.30202865600586,425.29797554016113,952,1
112,control,10.0,14,1,493.4358596801758,493.43085289001465,1041,1
113,control,11.0,14,1,199.6438503265381,592.8149223327637,901,1
114,control,12.0,14,1,394.58703994750977,394.5839405059815,1216,1
115,control,13.0,14,1,492.40899085998535,492.4070835113525,897,1
116,control,14.0,14,1,493.7047958374024,493.7009811401367,1427,1
117,control,15.0,14,1,592.2801494598389,592.278003692627,982,1
118,control,16.0,14,1,494.42195892333984,494.41981315612793,1165,1
119,control,17.0,14,1,426.9540309906006,426.947832107544,877,1
120,control,18.0,14,1,724.9331474304199,724.9269485473633,1261,1
121,control,19.0,14,1,495.9690570831299,495.962142944336,1019,1
122,control,20.0,14,1,493.8409328460693,493.837833404541,800,1
123,control,21.0,14,1,491.96386337280273,491.9629096984863,1277,1
124,control,22.0,14,1,889.2529010772705,889.2478942871094,1274,1
125,control,23.0,14,1,492.1691417694092,492.16604232788086,1078,1
126,control,24.0,14,1,593.019962310791,593.0187702178955,1354,1
127,control,25.0,14,1,593.703031539917,593.7008857727051,1188,1
128,control,26.0,14,1,494.1391944885254,494.1370487213135,1100,1
129,control,27.0,14,1,492.9380416870117,492.9368495941162,906,1
130,control,28.0,14,1,494.95983123779297,494.9550628662109,1367,1
131,control,29.0,14,1,493.361234664917,493.3590888977051,1315,1
132,control,30.0,14,1,891.559362411499,891.5572166442871,1388,1
133,control,5.0,14,1,99.41816329956056,424.90506172180176,1345,1
134,control,6.0,14,1,98.0980396270752,723.3998775482178,1256,1
135,control,7.0,14,1,99.98106956481934,429.3019771575928,1135,1
136,control,8.0,14,1,394.2830562591553,394.2792415618897,1014,1
137,control,9.0,14,1,197.45898246765137,393.8801288604736,1241,1
138,control,10.0,14,1,495.9118366241455,495.9101676940918,807,1
139,control,11.0,14,1,395.9710597991944,395.9691524505615,1020,1
140,control,12.0,14,1,394.2389488220215,394.232988357544,1392,1
141,control,13.0,14,1,590.8901691436768,590.8880233764648,1421,1
142,control,14.0,14,1,492.326021194458,492.3229217529297,852,1
143,control,15.0,14,1,591.8788909912109,591.8769836425781,1475,1
144,control,16.0,14,1,396.061897277832,396.05712890625,1434,1
145,control,17.0,14,1,493.88599395751953,493.8838481903076,1102,1
146,control,18.0,14,1,594.5451259613037,594.541072845459,915,1
147,control,19.0,14,1,492.9797649383545,492.9778575897217,1403,1
148,control,20.0,14,1,592.8802490234375,592.8761959075928,1299,1
149,control,21.0,14,1,792.4249172210693,792.4180030822754,1032,1
150,control,22.0,14,1,493.8101768493652,493.8061237335205,875,1
151,control,23.0,14,1,494.31777000427246,494.3099021911621,1213,1
152,control,24.0,14,1,493.08180809021,493.0808544158936,1115,1
153,control,25.0,14,1,395.0488567352295,395.0448036193848,1060,1
154,control,26.0,14,1,394.21796798706055,394.216775894165,810,1
155,control,27.0,14,1,426.6049861907959,426.5999794006348,1006,1
156,control,28.0,14,0,726.1240482330322,726.1209487915039,1098,1
157,control,29.0,14,1,591.3362503051758,591.3350582122803,1018,1
158,control,30.0,14,0,988.9638423919678,988.9569282531738,975,1
159,control,5.0,11,1,98.52218627929688,424.65901374816895,954,1
160,control,6.0,11,1,199.03302192687988,626.0478496551514,1019,1
161,control,7.0,11,1,298.3827590942383,594.5229530334473,1427,1
162,control,8.0,11,1,97.9762077331543,493.7243461608887,1048,1
163,control,9.0,11,1,526.1690616607666,526.1669158935547,1324,1
164,control,10.0,11,1,494.28677558898926,494.2848682403565,1251,1
165,control,11.0,11,1,494.16518211364746,494.16112899780273,1037,1
166,control,12.0,11,1,493.304967880249,493.3030605316162,1009,1
167,control,13.0,11,1,493.772029876709,493.7701225280762,1133,1
168,control,14.0,11,1,493.3459758758545,493.3440685272217,861,1
169,control,15.0,11,1,493.09277534484863,493.0899143218994,1262,1
170,control,16.0,11,1,592.3328399658203,592.3309326171875,1251,1
171,control,17.0,11,1,494.1399097442627,494.1339492797852,1089,1
172,control,18.0,11,1,593.937873840332,593.9362049102783,1483,1
173,control,19.0,11,1,591.5920734405518,591.588020324707,1468,1
174,control,20.0,11,1,692.4099922180176,692.4080848693848,886,1
175,control,21.0,11,1,493.1979179382324,493.1950569152832,1484,1
176,control,22.0,11,1,526.3569355010986,526.3547897338867,1272,1
177,control,23.0,11,1,493.65973472595215,493.6580657958984,884,1
178,control,24.0,11,1,493.9332008361816,493.927001953125,1288,1
179,control,25.0,11,1,593.419075012207,593.4109687805176,1276,1
180,control,26.0,11,1,593.9252376556396,593.9159393310547,1192,1
181,control,27.0,11,1,689.7499561309814,689.744234085083,1160,1
182,control,28.0,17,1,493.3478832244873,493.3450222015381,1417,1
183,control,29.0,11,1,692.8620338439941,692.8598880767822,1233,1
184,control,30.0,17,0,625.4847049713135,625.4830360412598,1208,1
185,control,5.0,11,1,99.35998916625977,395.77698707580566,1165,1
186,control,6.0,11,1,97.77474403381348,394.28186416625977,1073,1
187,control,7.0,11,1,99.1530418395996,527.1720886230469,1037,1
188,control,8.0,11,1,395.0991630554199,395.0972557067871,957,1
189,control,9.0,11,1,98.60467910766602,395.08986473083496,864,1
190,control,10.0,11,1,1812.638282775879,1812.6301765441895,993,1
191,control,11.0,11,1,493.73793601989746,493.73483657836914,1079,1
192,control,12.0,11,1,398.0879783630371,922.5001335144043,1288,1
193,control,13.0,11,1,890.8951282501221,890.8889293670654,964,1
194,control,14.0,11,1,494.14515495300293,494.1420555114746,863,1
195,control,15.0,11,1,594.4499969482422,594.444990158081,1127,1
196,control,16.0,11,1,493.6180114746094,493.61205101013184,1255,1
197,control,17.0,11,1,594.1019058227539,594.1009521484375,838,1
198,control,18.0,11,1,493.9110279083252,493.9088821411133,1132,1
199,control,19.0,11,1,493.5150146484375,493.5128688812256,1349,1
200,control,20.0,11,1,592.1049118041992,592.1027660369873,1338,1
201,control,21.0,11,1,593.5511589050293,593.543291091919,936,1
202,control,22.0,11,1,491.98007583618164,491.9781684875488,1167,1
203,control,23.0,11,1,493.38793754577637,493.3819770812988,1011,1
204,control,24.0,11,1,493.9761161804199,493.9701557159424,1356,1
205,control,25.0,11,1,526.3500213623047,526.3447761535645,915,1
206,control,26.0,11,1,425.6589412689209,425.6572723388672,1256,1
207,control,27.0,11,1,493.69001388549805,493.6800003051758,1284,1
208,control,28.0,17,1,591.912031173706,591.9110774993896,1002,1
209,control,29.0,11,1,592.6351547241211,592.6282405853271,1266,1
210,control,30.0,20,1,493.6060905456543,493.59989166259766,838,1
211,control,5.0,8,1,298.80714416503906,594.5641994476318,1341,1
212,control,6.0,8,1,493.4101104736328,493.4070110321045,892,1
213,control,7.0,8,1,492.9320812225342,492.92898178100586,1342,1
214,control,8.0,8,1,199.19300079345703,493.42989921569824,1195,1
215,control,9.0,8,1,724.5519161224365,724.5488166809082,1226,1
216,control,10.0,11,1,395.1239585876465,395.11680603027344,1320,1
217,control,11.0,11,1,491.0588264465332,491.0557270050049,1211,1
218,control,12.0,11,1,199.6591091156006,1220.2439308166504,1194,1
219,control,13.0,11,1,527.2550582885742,527.2469520568848,1005,1
220,control,14.0,11,1,592.8730964660645,592.8671360015869,1167,1
221,control,15.0,11,1,590.8129215240479,590.8107757568359,1217,1
222,control,16.0,11,1,492.68484115600586,492.68102645874023,1329,1
223,control,17.0,11,1,493.1912422180176,493.18623542785645,1083,1
224,control,18.0,11,1,593.8770771026611,593.8749313354492,1445,1
225,control,19.0,11,1,989.8219108581543,989.8200035095215,1198,1
226,control,20.0,11,1,493.6108589172363,493.6079978942871,1087,1
227,control,21.0,11,1,593.0609703063965,593.0559635162354,1058,1
228,control,22.0,11,1,494.11797523498535,494.1141605377197,1341,1
229,control,23.0,11,1,493.9587116241455,493.9556121826172,1343,1
230,control,24.0,11,1,492.28739738464355,492.28429794311523,1041,1
231,control,25.0,11,1,494.60291862487793,494.596004486084,1185,1
232,control,26.0,11,1,495.6858158111572,495.6839084625244,1409,1
233,control,27.0,11,1,593.7089920043945,593.7001705169678,1409,1
234,control,28.0,17,1,494.91286277770996,494.90976333618164,1337,1
235,control,29.0,11,0,1781.778335571289,1781.7730903625488,1068,1
236,control,30.0,20,1,493.0708408355713,493.06178092956543,1297,1
237,control,5.0,8,1,97.47195243835449,493.3631420135498,1499,1
238,control,6.0,8,1,394.6349620819092,394.62995529174805,1312,1
239,control,7.0,8,1,592.5140380859375,592.5030708312988,1496,1
240,control,8.0,8,1,889.6260261535645,889.6188735961914,856,1
241,control,9.0,8,1,494.7080612182617,494.7028160095215,1449,1
242,control,10.0,8,1,525.9897708892822,525.9888172149658,993,1
243,control,11.0,8,1,494.79198455810547,494.78602409362793,807,1
244,control,12.0,8,1,99.00903701782227,494.0671920776367,1404,0
245,control,12.0,8,1,591.5818214416504,591.5768146514893,936,1
246,control,13.0,8,1,591.9179916381836,591.9051170349121,878,1
247,control,14.0,8,1,493.7779903411865,493.776798248291,1345,1
248,control,15.0,8,1,693.4940814971924,693.4909820556641,1340,1
249,control,16.0,8,1,493.2222366333008,493.21818351745605,1077,1
250,control,17.0,8,1,525.5861282348633,525.5751609802246,1457,1
251,control,18.0,8,1,724.7269153594971,724.7240543365479,810,1
252,control,19.0,8,1,691.227912902832,691.22314453125,965,1
253,control,20.0,8,1,591.5069580078125,591.5000438690186,1183,1
254,control,21.0,8,0,624.1021156311035,624.0980625152588,1268,1
255,control,22.0,8,1,723.4838008880615,723.4818935394287,953,1
256,control,23.0,8,0,593.9178466796875,593.9159393310547,965,1
257,control,24.0,8,0,892.6241397857666,892.6219940185547,892,1
258,control,25.0,8,1,592.1568870544434,592.1518802642822,1456,1
259,control,26.0,8,0,790.9119129180908,790.9078598022461,1364,1
260,control,27.0,8,1,889.2030715942383,889.1971111297607,1101,1
261,control,28.0,14,1,591.2878513336182,591.284990310669,1017,1
262,control,29.0,14,1,986.3519668579102,986.3429069519043,1358,1
263,control,30.0,17,1,592.0360088348389,592.034101486206,1349,1
264,control,5.0,5,1,98.84500503540039,493.5591220855713,1377,0
265,control,5.0,5,1,97.65100479125977,526.0379314422607,953,1
266,control,6.0,5,1,493.23320388793945,493.2291507720947,1190,1
267,control,7.0,5,1,395.86901664733887,395.86615562438965,891,1
268,control,8.0,5,1,591.3560390472412,591.3538932800293,934,1
269,control,9.0,5,1,494.8008060455322,494.7998523712158,886,1
270,control,10.0,8,1,526.5278816223145,526.5216827392578,1223,1
271,control,11.0,8,1,493.6058521270752,493.60203742980957,1380,1
272,control,12.0,8,1,494.3270683288574,494.3211078643799,1381,1
273,control,13.0,8,1,986.5999221801758,986.598014831543,1232,1
274,control,14.0,8,1,494.4009780883789,494.3990707397461,1447,1
275,control,15.0,8,1,493.35408210754395,493.3509826660156,1054,1
276,control,16.0,8,1,493.41797828674316,493.41511726379395,883,1
277,control,17.0,8,0,987.3452186584473,987.342119216919,1008,1
278,control,18.0,8,1,829.9839496612549,829.9810886383057,922,1
279,control,19.0,8,1,726.1521816253662,726.1481285095215,1101,1
280,control,20.0,8,1,1022.0630168914795,1022.0551490783691,932,1
281,control,21.0,11,1,692.0971870422363,692.0943260192871,891,1
282,control,22.0,8,1,691.0839080810547,691.0829544067383,976,1
283,control,23.0,11,1,493.732213973999,493.7300682067871,933,1
284,control,24.0,11,0,594.8348045349121,594.8317050933838,1393,1
285,control,25.0,8,1,624.3820190429688,624.3801116943359,1115,1
286,control,26.0,11,1,494.22383308410645,494.2207336425781,1480,1
287,control,27.0,8,1,625.2727508544922,625.2710819244385,1327,1
288,control,28.0,14,1,591.0670757293701,591.0642147064209,1494,1
289,control,29.0,14,1,494.6272373199463,494.61984634399414,1127,1
290,control,30.0,17,1,691.5059089660645,691.5028095245361,921,1
291,control,5.0,5,1,101.23205184936523,397.1221446990967,1171,1
292,control,6.0,5,1,99.28393363952637,626.0910034179688,1419,1
293,control,7.0,5,1,99.08819198608398,823.371171951294,946,1
294,control,8.0,5,1,199.0799903869629,593.8198566436768,1240,1
295,control,9.0,5,1,493.6649799346924,493.66021156311035,1423,1
296,control,10.0,5,1,97.48387336730957,691.5969848632812,1314,1
297,control,11.0,5,1,625.8628368377686,625.8566379547119,1216,1
298,control,12.0,5,1,624.6390342712402,624.6321201324463,1203,1
299,control,13.0,5,1,492.6609992980957,492.65599250793457,1016,1
300,control,14.0,5,0,493.82877349853516,493.82591247558594,1374,1
301,control,15.0,5,0,393.86820793151855,393.86510848999023,1318,1
302,control,16.0,5,1,626.3251304626465,626.3220310211182,1185,1
303,control,17.0,11,1,625.0932216644287,625.0910758972168,899,1
304,control,18.0,5,1,592.1628475189209,592.1580791473389,867,1
305,control,19.0,5,0,890.1348114013672,890.1247978210449,1125,1
306,control,20.0,5,1,791.1081314086914,791.1038398742676,883,1
307,control,21.0,11,0,888.5490894317627,888.542890548706,1407,1
308,control,22.0,5,1,921.2298393249512,921.226978302002,813,1
309,control,23.0,11,1,724.5161533355713,724.513053894043,1461,1
310,control,24.0,14,1,527.0199775695801,527.0171165466309,1479,1
311,control,25.0,5,0,526.6568660736084,526.6549587249756,1434,1
312,control,26.0,11,1,594.6700572967529,594.6629047393799,1012,1
313,control,27.0,5,1,692.2919750213623,692.2900676727295,1402,1
314,control,28.0,11,1,594.2647457122803,594.2590236663818,993,1
315,control,29.0,12,0,595.5519676208496,595.545768737793,1332,1
316,control,30.0,14,1,793.2858467102051,793.2839393615723,1451,1
317,control,5.0,2,1,94.41208839416504,297.9588508605957,1264,1
318,control,6.0,2,1,99.21002388000488,492.91181564331055,1448,1
319,control,7.0,2,1,492.88129806518555,492.8781986236572,1189,1
320,control,8.0,2,1,201.58696174621582,692.1098232269287,818,1
321,control,9.0,2,0,890.282154083252,890.2759552001953,834,1
322,control,10.0,5,1,692.4722194671631,692.4669742584229,838,1
323,control,11.0,5,1,691.7550563812256,691.7519569396973,1147,1
324,control,12.0,5,1,525.8150100708008,525.8090496063232,859,1
325,control,13.0,5,1,524.7259140014648,524.7201919555664,1490,1
326,control,14.0,8,1,591.8340682983398,591.8290615081787,1161,1
327,control,15.0,8,1,623.5349178314209,623.5318183898926,1038,1
328,control,16.0,5,0,525.3860950469971,525.3820419311523,1025,1
329,control,17.0,11,1,988.6629581451416,988.6600971221924,1023,1
330,control,18.0,5,0,623.6772537231445,623.6753463745117,1423,1
331,control,19.0,8,1,531.2390327453613,531.2361717224121,850,1
332,control,20.0,5,1,593.7469005584717,593.743085861206,974,1
333,control,21.0,12,1,593.3089256286621,593.3048725128174,945,1
334,control,22.0,5,1,824.1310119628906,824.1279125213623,1066,1
335,control,23.0,9,0,791.9800281524658,791.9771671295166,973,1
336,control,24.0,14,1,592.7379131317139,592.7338600158691,914,1
337,control,25.0,8,1,791.2280559539795,791.2218570709229,1045,0
338,control,25.0,8,0,690.284013748169,690.2782917022705,935,1
339,control,26.0,9,1,887.5441551208496,887.5410556793213,972,1
340,control,27.0,5,0,790.8017635345459,790.7979488372803,1286,1
341,control,28.0,11,1,592.26393699646,592.2582149505615,1187,1
342,control,29.0,14,1,692.7177906036377,692.7099227905273,820,1
343,control,30.0,14,1,592.7231311798096,592.7209854125977,1433,1
344,control,5.0,2,0,98.7539291381836,1020.5957889556885,1053,1
345,control,6.0,2,0,197.91293144226074,1018.9929008483887,804,1
346,control,7.0,2,0,130.68699836730957,624.1381168365479,1241,1
347,control,8.0,2,1,97.52893447875977,723.1950759887695,909,1
348,control,9.0,5,1,491.99581146240234,491.9910430908203,1138,1
349,control,10.0,2,1,624.763011932373,624.7611045837402,934,1
350,control,11.0,2,0,624.7868537902832,624.7851848602295,1219,1
351,control,12.0,2,1,624.9129772186279,624.910831451416,993,1
352,control,13.0,2,1,690.650224685669,690.6430721282959,850,1
353,control,14.0,8,0,492.97428131103516,492.9690361022949,885,1
354,control,15.0,8,1,889.9011611938477,889.8918628692627,861,1
355,control,16.0,8,0,392.1170234680176,392.11511611938477,1332,1
356,control,17.0,9,1,495.2878952026367,495.2850341796875,1080,1
357,control,18.0,8,0,496.6778755187988,496.66810035705566,1244,1
358,control,19.0,8,0,493.4980869293213,493.4961795806885,1072,1
359,control,20.0,2,1,493.818998336792,493.81113052368164,1246,1
360,control,21.0,12,1,594.5169925689697,594.5138931274414,1451,1
361,control,22.0,2,0,493.5758113861084,493.56579780578613,826,1
362,control,23.0,11,1,593.9772129058838,593.9741134643555,1352,1
363,control,24.0,12,1,525.9461402893066,525.9430408477783,1425,1
364,control,25.0,11,1,426.0239601135254,426.02014541625977,1459,1
365,control,26.0,9,1,592.3128128051758,592.3089981079102,896,1
366,control,27.0,8,1,790.895938873291,790.891170501709,1086,1
367,control,28.0,8,1,591.7468070983887,591.7377471923828,834,1
368,control,29.0,14,1,493.297815322876,493.29090118408203,1305,1
369,control,30.0,11,1,593.8971042633057,593.8899517059326,809,1
370,control,5.0,5,1,196.29478454589844,493.0098056793213,826,1
371,control,6.0,5,1,98.88315200805664,494.3559169769287,1407,1
372,control,7.0,5,1,98.12211990356445,493.15810203552246,828,1
373,control,8.0,1,0,97.92780876159668,790.6138896942139,1486,1
374,control,9.0,5,1,99.01213645935059,791.2111282348633,1149,1
375,control,10.0,2,0,790.8449172973633,790.8401489257812,1204,1
376,control,11.0,5,1,691.9481754302979,691.943883895874,1493,1
377,control,12.0,2,0,595.21484375,595.2131748199463,1153,1
378,control,13.0,2,0,888.0958557128906,888.0839347839355,1359,1
379,control,14.0,9,1,493.1178092956543,493.11089515686035,1420,1
380,control,15.0,6,1,692.227840423584,692.2256946563721,1318,1
381,control,16.0,11,0,591.9830799102783,591.9790267944336,1130,1
382,control,17.0,9,1,690.2971267700195,690.2871131896973,1272,1
383,control,18.0,11,1,493.3428764343262,493.34096908569336,1164,1
384,control,19.0,9,1,493.2382106781006,493.23391914367676,875,1
385,control,20.0,2,1,493.7901496887207,493.7880039215088,1353,1
386,control,21.0,11,1,592.5319194793701,592.5302505493164,852,1
387,control,22.0,5,1,592.4689769744873,592.465877532959,1259,1
388,control,23.0,11,1,491.70589447021484,491.6989803314209,1315,1
389,control,24.0,12,1,492.63787269592285,492.6326274871826,901,1
1,quadbright,5.0,20,1,398.712158203125,501.18517875671387,814,1
2,quadbright,6.0,20,1,199.2189884185791,593.8599109649658,1138,1
3,quadbright,7.0,20,1,97.3200798034668,492.7811622619629,1082,1
4,quadbright,8.0,20,1,199.84197616577148,495.88823318481445,1073,1
5,quadbright,9.0,20,1,393.8601016998291,393.8581943511963,1165,1
6,quadbright,10.0,20,1,397.3519802093506,397.34816551208496,898,1
7,quadbright,11.0,20,1,494.473934173584,494.47083473205566,891,1
8,quadbright,12.0,20,1,398.3502388000488,398.3490467071533,931,1
9,quadbright,13.0,20,1,494.0309524536133,494.02594566345215,1058,1
10,quadbright,14.0,20,1,494.68493461608887,494.6789741516113,1471,1
11,quadbright,15.0,20,1,989.4299507141112,989.4278049468994,1395,1
12,quadbright,16.0,20,1,493.5569763183594,493.5538768768311,1222,1
13,quadbright,17.0,20,1,594.2020416259766,594.2001342773438,1355,1
14,quadbright,18.0,20,1,494.2078590393066,494.2049980163574,1160,1
15,quadbright,19.0,20,1,593.3980941772461,593.3921337127686,1405,1
16,quadbright,20.0,20,1,394.0629959106445,394.0548896789551,1455,1
17,quadbright,21.0,20,1,493.9870834350586,493.9761161804199,1135,1
18,quadbright,22.0,20,1,426.67388916015625,426.6719818115234,1183,1
19,quadbright,23.0,20,1,491.5599822998047,491.5578365325928,1002,1
20,quadbright,24.0,20,1,493.9231872558594,493.9141273498535,916,1
21,quadbright,25.0,20,1,493.8008785247803,493.7968254089356,1371,1
22,quadbright,26.0,20,1,395.1668739318848,395.1599597930908,815,1
23,quadbright,27.0,20,1,394.69289779663086,394.6900367736816,905,1
24,quadbright,28.0,20,1,593.1258201599121,593.1179523468018,818,1
25,quadbright,29.0,20,1,494.9660301208496,494.96006965637207,842,1
26,quadbright,30.0,20,1,525.4311561584473,525.4220962524414,1367,1
27,quadbright,5.0,20,1,99.70974922180176,491.405725479126,847,1
28,quadbright,6.0,20,1,99.75194931030272,494.41075325012207,889,1
29,quadbright,7.0,20,1,98.63901138305664,394.52505111694336,965,1
30,quadbright,8.0,20,1,988.9378547668456,988.9347553253174,890,1
31,quadbright,9.0,20,1,98.61898422241212,494.6470260620117,1193,1
32,quadbright,10.0,20,1,693.4709548950195,693.4652328491211,1195,1
33,quadbright,11.0,20,1,494.3869113922119,494.3819046020508,1451,1
34,quadbright,12.0,20,1,394.0310478210449,394.0219879150391,944,1
35,quadbright,13.0,20,1,1086.207151412964,1086.20023727417,1410,1
36,quadbright,14.0,20,0,888.6690139770508,888.6661529541016,1313,1
37,quadbright,15.0,20,1,494.0340518951416,494.0311908721924,1444,1
38,quadbright,16.0,20,1,593.4391021728516,593.437910079956,995,1
39,quadbright,17.0,20,1,394.47975158691406,394.4778442382813,1471,1
40,quadbright,18.0,20,1,493.0639266967773,493.06178092956543,1107,1
41,quadbright,19.0,20,1,494.063138961792,494.0612316131592,1093,1
42,quadbright,20.0,20,1,489.1681671142578,489.1650676727295,1052,1
43,quadbright,21.0,20,1,1021.960973739624,1021.958351135254,829,1
44,quadbright,22.0,20,1,1119.28391456604,1119.278907775879,958,1
45,quadbright,23.0,20,1,494.92502212524414,494.9219226837158,1039,1
46,quadbright,24.0,20,1,526.5312194824219,526.5271663665771,1053,1
47,quadbright,25.0,20,1,394.80018615722656,394.7961330413818,1278,1
48,quadbright,26.0,20,1,592.6830768585205,592.6778316497803,1145,1
49,quadbright,27.0,20,1,693.1130886077881,693.1090354919434,884,1
50,quadbright,28.0,20,1,493.7140941619873,493.7121868133545,821,1
51,quadbright,29.0,20,1,593.5080051422119,593.5029983520508,929,1
52,quadbright,30.0,20,1,1285.4208946228027,1285.41898727417,1274,1
53,quadbright,5.0,17,1,98.9680290222168,890.3050422668457,1461,1
54,quadbright,6.0,17,1,98.68907928466795,1086.6072177886963,1103,1
55,quadbright,7.0,17,1,100.95596313476562,495.7499504089356,1425,1
56,quadbright,8.0,17,1,100.6300449371338,394.8400020599365,801,1
57,quadbright,9.0,17,1,791.8059825897217,791.8009757995605,1386,1
58,quadbright,10.0,17,1,494.42481994628906,494.4226741790772,1255,1
59,quadbright,11.0,17,1,493.3528900146485,493.3509826660156,964,1
60,quadbright,12.0,17,1,593.9629077911377,593.9528942108154,1169,1
61,quadbright,13.0,17,1,493.67403984069824,493.6697483062744,910,1
62,quadbright,14.0,23,1,893.6760425567627,893.6750888824463,1020,1
63,quadbright,15.0,17,1,889.5680904388428,889.5618915557861,926,1
64,quadbright,16.0,17,1,492.6648139953613,492.6600456237793,1164,1
65,quadbright,17.0,17,1,593.3446884155273,593.3377742767334,1198,1
66,quadbright,18.0,17,1,494.6990013122559,494.6970939636231,1151,1
67,quadbright,19.0,17,1,394.3278789520264,394.3190574645996,998,1
68,quadbright,20.0,17,1,527.2188186645508,527.2130966186523,1372,1
69,quadbright,21.0,17,1,427.3970127105713,427.3951053619385,1058,1
70,quadbright,22.0,17,1,494.6508407592773,494.64869499206543,1459,1
71,quadbright,23.0,17,1,492.9850101470947,492.98095703125,1038,1
72,quadbright,24.0,17,1,593.8444137573242,593.8382148742676,1156,1
73,quadbright,25.0,17,1,890.5289173126221,890.5279636383057,1274,1
74,quadbright,26.0,17,1,494.8322772979736,494.8301315307617,1018,1
75,quadbright,27.0,17,1,493.8349723815918,493.8309192657471,1318,1
76,quadbright,28.0,17,1,495.3939914703369,495.38397789001465,1349,1
77,quadbright,29.0,17,1,493.5178756713867,493.5178756713867,1110,1
78,quadbright,30.0,17,0,1084.8090648651123,1084.8028659820557,1065,1
79,quadbright,5.0,17,1,97.53704071044922,890.0458812713623,1013,1
80,quadbright,6.0,17,1,98.64187240600586,493.0329322814941,1483,1
81,quadbright,7.0,17,1,98.31619262695312,394.589900970459,1149,1
82,quadbright,8.0,17,1,97.35107421875,492.1550750732422,1170,1
83,quadbright,9.0,17,1,494.54188346862793,494.534969329834,1412,1
84,quadbright,10.0,17,1,493.8566684722901,493.8566684722901,997,1
85,quadbright,11.0,17,1,594.768762588501,594.7661399841309,810,1
86,quadbright,12.0,17,1,525.3517627716064,525.3498554229736,1098,1
87,quadbright,13.0,17,1,492.9840564727783,492.9831027984619,1446,1
88,quadbright,14.0,23,1,392.0431137084961,392.0421600341797,866,1
89,quadbright,15.0,17,1,623.9049434661865,623.9027976989746,811,1
90,quadbright,16.0,17,1,525.831937789917,525.8312225341797,836,1
91,quadbright,17.0,17,1,526.2961387634277,526.2899398803711,1266,1
92,quadbright,18.0,17,1,526.3979434967041,526.3950824737549,1391,1
93,quadbright,19.0,17,1,494.63391304016113,494.6300983428955,1005,1
94,quadbright,20.0,17,1,888.8041973114014,888.8030052185059,915,1
95,quadbright,21.0,17,1,494.21095848083496,494.2078590393066,1361,1
96,quadbright,22.0,17,1,394.8049545288086,394.7961330413818,1225,1
97,quadbright,23.0,17,1,495.87082862854,495.8658218383789,882,1
98,quadbright,24.0,17,1,593.6808586120605,593.6739444732666,1241,1
99,quadbright,25.0,17,1,493.4163093566895,493.41320991516113,892,1
100,quadbright,26.0,17,1,592.2129154205322,592.2110080718994,1172,1
101,quadbright,27.0,17,1,1088.4349346160889,1088.4320735931396,812,1
102,quadbright,28.0,17,1,493.0830001831055,493.0789470672608,1107,1
103,quadbright,29.0,17,1,492.4478530883789,492.4459457397461,924,1
104,quadbright,30.0,20,1,525.9401798248291,525.9380340576172,1381,1
105,quadbright,5.0,14,1,130.9349536895752,524.8141288757324,1108,1
106,quadbright,6.0,14,1,198.56619834899905,593.0402278900146,1321,1
107,quadbright,7.0,14,1,99.9002456665039,1290.8430099487305,1344,1
108,quadbright,8.0,14,1,98.8328456878662,493.9448833465576,1146,1
109,quadbright,9.0,14,1,98.33168983459473,498.1036186218262,968,1
110,quadbright,10.0,14,1,493.2949542999268,493.293046951294,1267,1
111,quadbright,11.0,14,1,493.7441349029541,493.7350749969482,1384,1
112,quadbright,12.0,14,1,99.15494918823242,494.469165802002,1227,1
113,quadbright,13.0,14,1,392.9407596588135,392.93909072875977,1044,1
114,quadbright,14.0,21,1,396.05212211608887,396.0421085357666,1384,1
115,quadbright,15.0,14,1,592.7090644836426,592.7081108093262,1212,1
116,quadbright,16.0,14,1,495.7129955291748,495.7108497619629,820,1
117,quadbright,17.0,14,1,493.6079978942871,493.6020374298096,1036,1
118,quadbright,18.0,14,1,1088.129997253418,1088.1290435791016,1386,0
119,quadbright,18.0,14,1,790.4179096221924,790.4138565063477,1187,1
120,quadbright,19.0,14,1,592.9889678955078,592.9868221282959,1493,1
121,quadbright,20.0,14,1,493.7548637390137,493.7510490417481,1433,1
122,quadbright,21.0,14,1,494.0030574798584,493.9930438995361,825,1
123,quadbright,22.0,14,1,526.7829895019531,526.7760753631592,940,1
124,quadbright,23.0,14,1,495.4259395599365,495.4178333282471,806,1
125,quadbright,24.0,14,1,493.1802749633789,493.1750297546387,1039,1
126,quadbright,25.0,14,1,493.7000274658203,493.6940670013428,1030,1
127,quadbright,26.0,14,1,395.575761795044,395.5719470977783,1463,1
128,quadbright,27.0,14,1,493.99709701538086,493.9918518066406,1022,1
129,quadbright,28.0,14,1,493.46303939819336,493.459939956665,838,1
130,quadbright,29.0,14,0,893.160343170166,893.1591510772705,1285,1
131,quadbright,30.0,20,1,494.0600395202637,494.05717849731445,1190,1
132,quadbright,5.0,14,1,99.62701797485352,494.8239326477051,1260,1
133,quadbright,6.0,14,1,198.1179714202881,593.0271148681641,1403,1
134,quadbright,7.0,14,1,397.30191230773926,987.8859519958496,1120,1
135,quadbright,8.0,14,1,99.0138053894043,494.3199157714844,1106,1
136,quadbright,9.0,14,1,199.40900802612305,494.2820072174072,1295,1
137,quadbright,10.0,14,1,591.0079479217529,591.0038948059082,1470,1
138,quadbright,11.0,14,1,691.0221576690674,691.0181045532227,1448,1
139,quadbright,12.0,14,1,591.9878482818604,591.9809341430664,1123,1
140,quadbright,13.0,14,1,395.1449394226074,395.1070308685303,1285,1
141,quadbright,14.0,21,1,495.2719211578369,495.26309967041016,1033,1
142,quadbright,15.0,14,1,527.2910594940186,527.2879600524902,1381,1
143,quadbright,16.0,14,1,494.5814609527588,494.57836151123047,1432,1
144,quadbright,17.0,14,1,593.3029651641846,593.2979583740234,828,1
145,quadbright,18.0,14,1,492.6090240478516,492.6071166992188,1232,1
146,quadbright,19.0,14,1,592.5869941711426,592.5827026367188,1172,1
147,quadbright,20.0,14,0,1119.779109954834,1119.7760105133057,1377,1
148,quadbright,21.0,14,1,593.5192108154297,593.5170650482178,1129,1
149,quadbright,22.0,14,1,593.2972431182861,593.2931900024414,1229,1
150,quadbright,23.0,14,1,527.479887008667,527.4739265441895,822,1
151,quadbright,24.0,14,1,591.9198989868164,591.9148921966553,1105,1
152,quadbright,25.0,14,1,493.3638572692871,493.3528900146485,1249,1
153,quadbright,26.0,14,1,492.7439689636231,492.74206161499023,1393,1
154,quadbright,27.0,14,1,492.5360679626465,492.52772331237793,1307,1
155,quadbright,28.0,14,1,395.4980373382568,395.4958915710449,1064,1
156,quadbright,29.0,17,1,392.57121086120605,392.5671577453613,1351,1
157,quadbright,30.0,18,1,592.0929908752441,592.0910835266113,1003,1
158,quadbright,5.0,11,1,98.34814071655272,395.6551551818848,885,1
159,quadbright,6.0,11,1,98.59323501586914,393.2263851165772,1011,1
160,quadbright,7.0,11,1,98.952054977417,492.8610324859619,885,1
161,quadbright,8.0,11,1,789.6199226379395,789.6180152893066,1205,0
162,quadbright,8.0,11,1,99.09391403198242,398.3280658721924,1429,1
163,quadbright,9.0,11,1,395.3189849853516,395.3168392181397,951,1
164,quadbright,10.0,11,1,494.1849708557129,494.1840171813965,801,1
165,quadbright,11.0,11,1,589.9839401245117,589.9786949157715,869,1
166,quadbright,12.0,11,1,493.635892868042,493.6237335205078,1134,1
167,quadbright,13.0,11,1,592.5710201263428,592.5672054290771,825,0
168,quadbright,13.0,11,1,493.8890933990479,493.88599395751953,1206,1
169,quadbright,14.0,20,1,394.3018913269043,394.3002223968506,1300,1
170,quadbright,15.0,11,1,591.57395362854,591.5713310241699,1475,1
171,quadbright,16.0,11,1,526.8111228942871,526.8049240112305,1345,1
172,quadbright,17.0,11,1,593.9719676971436,593.9679145812988,1246,1
173,quadbright,18.0,11,1,492.85888671875,492.854118347168,983,1
174,quadbright,19.0,11,1,493.3202266693115,493.3180809020996,1298,1
175,quadbright,20.0,17,1,889.6999359130859,889.697790145874,918,1
176,quadbright,21.0,11,1,493.9007759094238,493.8981533050537,909,1
177,quadbright,22.0,11,1,494.5080280303955,494.5049285888672,1405,1
178,quadbright,23.0,11,1,594.15602684021,594.153881072998,1111,1
179,quadbright,24.0,11,1,494.2431449890137,494.2388534545898,1437,1
180,quadbright,25.0,11,1,493.93510818481445,493.9289093017578,1277,1
181,quadbright,26.0,11,0,496.2630271911621,496.2599277496338,955,1
182,quadbright,27.0,11,1,593.5337543487549,593.5258865356445,1188,1
183,quadbright,28.0,11,1,592.8220748901367,592.8192138671875,814,1
184,quadbright,29.0,17,1,594.1390991210938,594.1309928894043,1023,1
185,quadbright,30.0,18,0,1120.297908782959,1120.2960014343262,1473,1
186,quadbright,5.0,11,1,98.2530117034912,493.4818744659424,1208,1
187,quadbright,6.0,11,1,131.81018829345703,526.8990993499756,803,1
188,quadbright,7.0,11,1,595.3350067138672,595.332145690918,877,1
189,quadbright,8.0,11,1,97.5511074066162,393.1388854980469,1315,1
190,quadbright,9.0,11,1,198.962926864624,593.3449268341064,816,1
191,quadbright,10.0,11,1,594.8770046234131,594.871997833252,1436,1
192,quadbright,11.0,11,1,493.9539432525635,493.9498901367188,1409,1
193,quadbright,12.0,11,1,595.6869125366211,595.6838130950928,1099,1
194,quadbright,13.0,11,1,493.5989379882813,493.5967922210693,1320,1
195,quadbright,14.0,20,1,493.2007789611816,493.1988716125488,1288,1
196,quadbright,15.0,11,1,693.342924118042,693.3369636535645,1188,1
197,quadbright,16.0,11,1,692.9728984832764,692.9700374603271,884,1
198,quadbright,17.0,11,0,624.9699592590332,624.9630451202393,871,1
199,quadbright,18.0,11,1,857.0868968963623,857.0821285247803,1325,1
200,quadbright,19.0,11,1,493.7899112701416,493.78275871276855,1081,1
201,quadbright,20.0,17,1,494.2021369934082,494.2002296447754,893,1
202,quadbright,21.0,11,1,594.6228504180908,594.6207046508789,1227,1
203,quadbright,22.0,11,1,493.5538768768311,493.55196952819824,1269,1
204,quadbright,23.0,11,1,693.3610439300537,693.3588981628418,1124,1
205,quadbright,24.0,11,0,922.3120212554932,922.3101139068604,1201,1
206,quadbright,25.0,11,1,1218.7180519104004,1218.717098236084,1420,1
207,quadbright,26.0,14,1,592.5190448760986,592.5161838531494,1024,1
208,quadbright,27.0,11,0,724.1549491882324,724.1530418395996,1159,1
209,quadbright,28.0,11,0,690.5169486999512,690.5148029327393,1401,1
210,quadbright,29.0,15,0,725.043773651123,725.0368595123291,999,1
211,quadbright,30.0,20,0,725.905179977417,725.9020805358887,1469,1
212,quadbright,5.0,8,1,198.9901065826416,591.7510986328125,1324,1
213,quadbright,6.0,8,1,98.86884689331055,526.6838073730469,994,1
214,quadbright,7.0,8,1,98.95086288452148,591.9020175933838,962,1
215,quadbright,8.0,8,1,99.86281394958496,493.53790283203125,1351,1
216,quadbright,9.0,8,1,591.6180610656738,591.6109085083008,1354,1
217,quadbright,10.0,8,1,98.6931324005127,493.131160736084,836,1
218,quadbright,11.0,8,1,494.45605278015137,494.45080757141113,882,1
219,quadbright,12.0,8,1,694.9849128723145,694.9748992919922,1201,1
220,quadbright,13.0,8,1,791.064977645874,791.0609245300293,1015,1
221,quadbright,14.0,18,1,495.1128959655762,495.10979652404785,1431,1
222,quadbright,15.0,8,1,890.4249668121338,890.423059463501,1380,1
223,quadbright,16.0,8,1,790.3897762298584,790.3881072998047,1428,1
224,quadbright,17.0,14,1,494.2600727081299,494.25482749938965,1436,1
225,quadbright,18.0,8,0,689.967155456543,689.9628639221191,1379,1
226,quadbright,19.0,8,0,592.5290584564209,592.5219058990479,839,1
227,quadbright,20.0,15,1,592.5910472869873,592.587947845459,1325,1
228,quadbright,21.0,8,0,595.3748226165771,595.3669548034668,843,0
229,quadbright,21.0,8,1,397.85289764404297,397.8450298309326,1057,1
230,quadbright,22.0,8,0,592.7250385284424,592.7188396453857,1314,1
231,quadbright,23.0,8,0,692.6031112670898,692.6009654998779,1198,1
232,quadbright,24.0,14,1,493.97802352905273,493.9758777618408,1286,1
233,quadbright,25.0,8,1,625.8518695831299,625.842809677124,927,1
234,quadbright,26.0,14,0,724.1039276123047,724.1017818450928,1188,1
235,quadbright,27.0,14,1,624.6781349182129,624.6762275695801,1008,1
236,quadbright,28.0,14,1,425.0071048736572,424.99709129333496,1176,1
237,quadbright,29.0,17,1,525.1650810241699,525.158166885376,1095,1
238,quadbright,30.0,21,1,494.2188262939453,494.2169189453125,886,1
239,quadbright,5.0,8,1,197.10683822631836,493.50881576538086,1295,1
240,quadbright,6.0,8,1,98.9220142364502,493.6790466308594,1021,1
241,quadbright,7.0,8,1,494.56095695495605,494.5549964904785,1080,1
242,quadbright,8.0,8,1,394.942045211792,394.9398994445801,1093,1
243,quadbright,9.0,8,1,492.9938316345215,492.98787117004395,1094,1
244,quadbright,10.0,8,0,230.88812828063965,823.8310813903809,1456,1
245,quadbright,11.0,8,0,789.5188331604004,789.5181179046631,1297,1
246,quadbright,12.0,8,1,526.0307788848877,526.0207653045654,877,1
247,quadbright,13.0,8,0,690.4811859130859,690.479040145874,1272,1
248,quadbright,14.0,18,1,593.0008888244629,592.9977893829346,897,1
249,quadbright,15.0,8,0,890.2318477630615,890.2268409729004,1067,1
250,quadbright,16.0,8,0,691.5812492370605,691.5719509124756,1333,1
251,quadbright,17.0,14,1,493.32690238952637,493.32475662231445,990,1
252,quadbright,18.0,11,1,495.58091163635254,495.56994438171387,960,1
253,quadbright,19.0,11,1,494.4779872894287,494.4729804992676,1213,1
254,quadbright,20.0,15,1,492.6471710205078,492.6450252532959,1215,1
255,quadbright,21.0,8,0,889.970064163208,889.9669647216797,1454,1
256,quadbright,22.0,11,1,592.5858020782471,592.5819873809814,1405,1
257,quadbright,23.0,11,1,889.8217678070068,889.819860458374,1126,1
258,quadbright,24.0,14,1,493.3891296386719,493.38698387145996,1218,0
259,quadbright,24.0,14,1,493.75200271606445,493.7460422515869,1279,1
260,quadbright,25.0,8,0,789.7250652313232,789.7210121154785,1200,1
261,quadbright,26.0,17,1,591.3639068603516,591.3619995117188,1114,1
262,quadbright,27.0,14,1,690.1280879974365,690.1230812072754,1388,1
263,quadbright,28.0,14,1,591.9148921966553,591.9086933135986,1125,1
264,quadbright,29.0,17,1,493.1471347808838,493.13926696777344,1384,1
265,quadbright,30.0,21,1,492.110013961792,492.1081066131592,804,1
266,quadbright,5.0,5,1,98.27709197998047,491.15800857543945,913,1
267,quadbright,6.0,5,1,592.231273651123,592.2250747680664,842,1
268,quadbright,7.0,5,1,196.85125350952148,592.3130512237549,958,1
269,quadbright,8.0,5,1,99.33209419250488,590.8181667327881,995,1
270,quadbright,9.0,5,1,986.5827560424805,986.5720272064209,1193,1
271,quadbright,10.0,11,1,724.916934967041,724.9050140380859,925,1
272,quadbright,11.0,11,1,724.7471809387207,724.7412204742432,1153,1
273,quadbright,12.0,5,1,99.32088851928711,890.7361030578613,975,1
274,quadbright,13.0,11,1,690.5200481414795,690.5121803283691,1386,1
275,quadbright,14.0,15,1,426.5100955963135,426.50794982910156,1288,1
276,quadbright,15.0,11,1,525.7940292358398,525.7887840270996,1103,1
277,quadbright,16.0,11,1,525.2091884613037,525.2048969268799,1310,1
278,quadbright,17.0,11,1,624.3970394134521,624.3870258331299,1205,1
279,quadbright,18.0,11,1,493.95203590393066,493.94917488098145,1251,1
280,quadbright,19.0,11,0,724.6389389038086,724.6379852294922,1459,1
281,quadbright,20.0,12,1,627.2976398468018,627.295732498169,816,0
282,quadbright,20.0,12,1,493.87598037719727,493.87383460998535,1389,1
283,quadbright,21.0,11,0,690.8228397369385,690.8190250396729,1469,1
284,quadbright,22.0,11,1,723.1450080871582,723.1388092041016,1132,1
285,quadbright,23.0,11,1,525.536060333252,525.53391456604,1304,1
286,quadbright,24.0,11,1,624.3188381195068,624.3178844451904,902,1
287,quadbright,25.0,11,1,593.3189392089844,593.3167934417725,1199,1
288,quadbright,26.0,17,1,493.8197135925293,493.80993843078613,966,1
289,quadbright,27.0,11,1,822.8051662445068,822.7951526641846,1434,1
290,quadbright,28.0,11,0,821.972131729126,821.9690322875977,1071,1
291,quadbright,29.0,14,1,791.1009788513184,791.0971641540527,1053,1
292,quadbright,30.0,18,0,623.8501071929932,623.8470077514648,1335,1
293,quadbright,5.0,5,1,591.1948680877686,591.1870002746582,1268,1
294,quadbright,6.0,5,1,129.61983680725098,625.9551048278809,1338,1
295,quadbright,7.0,5,1,99.49207305908203,624.0901947021484,1106,1
296,quadbright,8.0,5,1,791.1489009857178,791.144847869873,957,0
297,quadbright,8.0,5,1,987.6978397369385,987.6928329467773,1150,1
298,quadbright,9.0,5,0,791.2781238555908,791.2759780883789,1061,1
299,quadbright,10.0,11,1,492.5980567932129,492.59018898010254,931,1
300,quadbright,11.0,11,1,791.4838790893555,791.4791107177734,1450,1
301,quadbright,12.0,5,0,493.81017684936523,493.8011169433594,1177,1
302,quadbright,13.0,11,1,593.8429832458496,593.8389301300049,1190,1
303,quadbright,14.0,15,1,394.885778427124,394.8817253112793,1328,1
304,quadbright,15.0,11,1,595.6549644470215,595.6511497497559,1057,1
305,quadbright,16.0,11,1,692.8529739379883,692.8470134735107,1011,1
306,quadbright,17.0,11,1,492.9637908935547,492.9618835449219,1116,1
307,quadbright,18.0,8,1,690.4010772705078,690.3994083404541,1355,1
308,quadbright,19.0,14,1,493.89004707336426,493.88599395751953,1292,1
309,quadbright,20.0,12,1,1807.8327178955078,1807.8296184539795,971,1
310,quadbright,21.0,14,1,722.1689224243164,722.1670150756836,1032,1
311,quadbright,22.0,8,1,724.8828411102295,724.8778343200684,1227,1
312,quadbright,23.0,8,1,491.7900562286377,491.7881488800049,812,1
313,quadbright,24.0,11,1,593.9829349517822,593.9807891845703,1062,1
314,quadbright,25.0,11,1,691.3669109344482,691.3650035858154,1169,1
315,quadbright,26.0,14,1,593.9040184020996,593.9018726348877,1171,1
316,quadbright,27.0,11,1,790.9119129180908,790.9097671508789,1253,1
317,quadbright,28.0,14,1,592.4649238586426,592.458963394165,945,1
318,quadbright,29.0,14,0,494.0609931945801,494.05694007873535,1385,1
319,quadbright,30.0,21,1,595.4861640930176,595.4811573028564,996,1
320,quadbright,5.0,2,0,99.26390647888184,1285.3622436523438,1471,1
321,quadbright,6.0,2,0,101.99880599975586,894.2520618438721,1335,1
322,quadbright,7.0,2,1,198.836088180542,592.9069519042969,1306,1
323,quadbright,8.0,2,0,98.86503219604492,790.7378673553467,998,1
324,quadbright,9.0,8,1,197.27396965026855,592.7469730377197,1219,0
325,quadbright,9.0,8,1,98.94895553588867,427.5679588317871,1236,0
326,quadbright,9.0,8,1,97.33986854553223,394.1230773925781,1428,1
327,quadbright,10.0,9,1,593.3558940887451,593.3487415313721,1102,1
328,quadbright,11.0,9,1,1087.2960090637207,1087.2950553894043,1242,1
329,quadbright,12.0,8,1,494.0810203552246,494.0629005432129,850,1
330,quadbright,13.0,9,1,525.5329608917236,525.5320072174072,926,1
331,quadbright,14.0,12,1,624.1841316223145,624.1810321807861,815,1
332,quadbright,15.0,9,1,493.3769702911377,493.36910247802734,1401,1
333,quadbright,16.0,9,1,593.6887264251709,593.6839580535889,846,1
334,quadbright,17.0,8,1,690.9799575805664,690.9780502319336,1408,1
335,quadbright,18.0,8,0,889.423131942749,889.4219398498535,1444,1
336,quadbright,19.0,14,1,591.0718441009521,591.0699367523193,1257,1
337,quadbright,20.0,9,0,791.252851486206,791.240930557251,808,1
338,quadbright,21.0,14,1,591.7501449584961,591.7470455169678,1024,1
339,quadbright,22.0,8,1,524.4560241699219,524.4531631469727,878,1
340,quadbright,23.0,8,1,591.4230346679688,591.4208889007568,1288,0
341,quadbright,23.0,8,1,691.1990642547607,691.1959648132324,1075,1
342,quadbright,24.0,8,1,625.5531311035156,625.5478858947754,1345,1
343,quadbright,25.0,9,0,526.0710716247559,526.0658264160156,911,1
344,quadbright,26.0,14,1,524.8751640319824,524.8708724975586,1432,1
345,quadbright,27.0,8,1,626.2998580932617,626.2969970703125,1265,1
346,quadbright,28.0,14,1,690.4470920562744,690.436840057373,1378,1
347,quadbright,29.0,17,1,493.3812618255615,493.3791160583496,1050,1
348,quadbright,30.0,21,1,491.48106575012207,491.47796630859375,1164,1
349,quadbright,5.0,5,1,98.70100021362305,624.6919631958008,842,1
350,quadbright,6.0,5,1,592.559814453125,592.5579071044922,1222,0
351,quadbright,6.0,5,1,592.799186706543,592.7951335906982,831,1
352,quadbright,7.0,2,1,196.34199142456055,1021.1529731750488,1127,1
353,quadbright,8.0,5,1,99.70593452453613,823.2629299163818,1065,1
354,quadbright,9.0,8,1,589.2207622528076,589.216947555542,942,1
355,quadbright,10.0,9,1,499.1950988769531,499.1922378540039,1203,1
356,quadbright,11.0,9,1,95.48783302307129,491.87779426574707,1267,1
357,quadbright,12.0,8,1,791.3928031921387,791.3877964019775,1136,1
358,quadbright,13.0,9,1,492.63906478881836,492.6321506500244,1307,1
359,quadbright,14.0,12,1,525.2158641815186,525.2130031585693,1404,1
360,quadbright,15.0,9,1,626.6078948974609,626.6040802001953,1132,1
361,quadbright,16.0,9,1,524.3282318115234,524.3260860443115,1394,1
362,quadbright,17.0,8,0,724.2708206176758,724.2648601531982,1428,1
363,quadbright,18.0,11,0,525.6450176239014,525.6438255310059,1017,1
364,quadbright,19.0,12,1,395.4348564147949,395.4331874847412,1124,1
365,quadbright,20.0,12,1,690.5889511108398,690.5820369720459,1380,1
366,quadbright,21.0,12,0,624.640941619873,624.6318817138672,1192,1
367,quadbright,22.0,5,0,626.7681121826172,626.7650127410889,802,1
368,quadbright,23.0,5,1,822.9451179504395,822.9403495788574,1050,1
369,quadbright,24.0,8,1,696.0818767547607,696.077823638916,915,1
370,quadbright,25.0,11,1,493.6518669128418,493.6497211456299,1093,1
371,quadbright,26.0,11,1,691.0948753356934,691.0889148712158,859,1
372,quadbright,27.0,8,1,890.1622295379639,890.1591300964355,1272,1
373,quadbright,28.0,12,0,791.5189266204834,791.5167808532715,1228,1
374,quadbright,29.0,17,1,691.9600963592529,691.9569969177246,1047,1
375,quadbright,30.0,20,1,591.9411182403564,591.9361114501953,926,1
376,quadbright,5.0,5,1,98.42038154602051,591.8033123016357,964,1
377,quadbright,6.0,5,1,99.85709190368652,495.85485458374023,1042,1
378,quadbright,7.0,1,0,889.9948596954346,889.9891376495361,886,1
379,quadbright,8.0,5,1,98.20175170898438,1186.2897872924805,1002,1
380,quadbright,9.0,6,1,97.69392013549805,493.21699142456055,1171,1
381,quadbright,10.0,8,1,198.84109497070312,593.3070182800293,1048,1
382,quadbright,11.0,8,0,690.3798580169678,690.3789043426514,854,1
383,quadbright,12.0,6,1,689.1689300537109,689.1660690307617,859,1
384,quadbright,13.0,8,1,692.8980350494385,692.8958892822266,1126,1
385,quadbright,14.0,9,0,196.88010215759277,592.3182964324951,800,1
386,quadbright,15.0,8,1,922.9776859283447,922.9738712310791,1270,1
387,quadbright,16.0,8,0,592.0729637145996,592.0658111572266,1381,0
388,quadbright,16.0,8,1,692.5280094146729,692.5210952758789,844,1
389,quadbright,17.0,11,1,592.5159454345703,592.512845993042,1059,1
390,quadbright,18.0,12,1,493.7329292297363,493.72386932373047,1388,1
391,quadbright,19.0,12,1,591.7229652404785,591.7191505432129,1217,1
392,quadbright,20.0,12,1,494.98534202575684,494.9800968170166,1351,1
393,quadbright,21.0,14,1,493.36814880371094,493.3643341064453,940,1
394,quadbright,22.0,8,0,493.2818412780762,493.27802658081055,1395,1
395,quadbright,23.0,5,1,591.3388729095459,591.3369655609131,837,1
396,quadbright,24.0,5,1,592.6940441131592,592.6909446716309,850,1
397,quadbright,25.0,11,1,592.5512313842773,592.5500392913818,1133,1
398,quadbright,26.0,11,1,492.40565299987793,492.4027919769287,1391,1
399,quadbright,27.0,5,1,692.6453113555908,692.6360130310059,1406,1
400,quadbright,28.0,14,1,691.1509037017822,691.1461353302002,853,0
401,quadbright,28.0,14,1,494.63677406311035,494.63510513305664,1431,1
402,quadbright,29.0,15,1,590.8751487731934,590.8732414245605,1084,1
403,quadbright,30.0,20,1,592.087984085083,592.0801162719727,1217,1
