trial,condition,eccentricity,magnitude,correct,srt_ms,keyboard_rt_ms,pre_change_ms,valid
1,control,5.0,20,1,104.04396057128906,500.5910396575928,1457,1
2,control,6.0,20,1,98.77419471740723,1525.1140594482422,970,1
3,control,7.0,20,1,426.8169403076172,426.81097984313965,1268,1
4,control,8.0,20,1,493.1530952453613,493.149995803833,1484,1
5,control,9.0,20,1,493.42894554138184,493.4229850769043,992,1
6,control,10.0,20,1,492.25687980651855,492.25401878356934,989,1
7,control,11.0,20,1,605.5712699890137,605.5681705474854,978,1
8,control,12.0,20,1,592.8361415863037,592.8318500518799,1034,1
9,control,13.0,20,1,525.3260135650635,525.3171920776367,1081,1
10,control,14.0,20,1,684.2560768127441,684.2548847198486,1012,1
11,control,15.0,20,1,503.6189556121826,503.6149024963379,1216,1
12,control,16.0,20,1,593.1868553161621,593.1868553161621,1439,1
13,control,17.0,20,1,526.4029502868652,526.4010429382324,1103,1
14,control,18.0,20,1,493.1657314300537,493.1640625,1081,1
15,control,19.0,20,1,681.5958023071289,681.5948486328125,866,1
16,control,20.0,20,1,428.15208435058594,428.1489849090576,1142,1
17,control,21.0,20,1,428.4179210662842,428.4169673919678,1053,1
18,control,22.0,20,1,493.09420585632324,493.0920600891113,1220,1
19,control,23.0,20,1,526.4861583709717,526.4761447906494,951,1
20,control,24.0,20,1,493.9000606536865,493.8938617706299,1316,1
21,control,25.0,20,1,415.1601791381836,415.1592254638672,832,1
22,control,26.0,20,1,592.5359725952148,592.5302505493164,1384,1
23,control,27.0,20,1,691.6770935058594,691.6742324829102,1133,1
24,control,28.0,20,1,493.8960075378418,493.894100189209,1146,1
25,control,29.0,20,1,593.7590599060059,593.7561988830566,1271,1
26,control,30.0,20,1,593.6498641967773,593.6489105224609,954,1
27,control,5.0,20,1,198.2579231262207,593.8670635223389,926,1
28,control,6.0,20,1,199.97000694274902,496.12998962402344,925,1
29,control,7.0,20,1,198.3637809753418,498.20494651794434,906,1
30,control,8.0,20,1,99.58195686340332,394.6199417114258,1310,1
31,control,9.0,20,1,100.11911392211914,403.40685844421387,919,1
32,control,10.0,20,1,100.19898414611816,495.5251216888428,907,1
33,control,11.0,20,1,494.0967559814453,494.08888816833496,1275,1
34,control,12.0,20,1,198.03500175476074,526.8559455871582,1090,1
35,control,13.0,20,1,395.4639434814453,626.1661052703857,879,1
36,control,14.0,20,1,592.1549797058105,592.1530723571777,1091,1
37,control,15.0,20,1,526.0510444641113,526.0481834411621,1241,1
38,control,16.0,20,1,394.4261074066162,394.4220542907715,1296,1
39,control,17.0,20,1,493.1168556213379,493.10994148254395,989,1
40,control,18.0,20,1,1514.9130821228027,1514.91117477417,1368,1
41,control,19.0,20,1,593.7390327453613,593.7302112579346,1021,1
42,control,20.0,20,1,496.86598777770996,496.86408042907715,985,1
43,control,21.0,20,1,595.5250263214111,595.5228805541992,1248,1
44,control,22.0,20,1,1098.668098449707,1098.6649990081787,1150,1
45,control,23.0,20,1,492.8560256958008,492.8479194641113,1315,1
46,control,24.0,20,1,601.3298034667969,601.3259887695312,1413,1
47,control,25.0,20,1,493.75176429748535,493.7448501586914,830,1
48,control,26.0,20,1,594.5291519165039,594.5260524749756,1153,1
49,control,27.0,20,1,494.002103805542,493.9990043640137,1078,1
50,control,28.0,20,1,495.3610897064209,495.3601360321045,1362,1
51,control,29.0,20,1,593.4369564056396,593.4319496154785,1110,1
52,control,30.0,20,1,485.443115234375,485.4421615600586,1338,1
53,control,5.0,17,1,100.0678539276123,486.0339164733887,1195,1
54,control,6.0,17,1,291.0299301147461,583.2397937774658,1182,1
55,control,7.0,17,1,101.01103782653809,505.69701194763184,885,1
56,control,8.0,17,1,98.7398624420166,494.473934173584,1408,1
57,control,9.0,17,1,105.93390464782715,499.8481273651123,1293,1
58,control,10.0,17,1,1291.1999225616455,1291.198968887329,1046,1
59,control,11.0,17,1,100.47197341918945,484.0519428253174,1289,1
60,control,12.0,17,1,398.47826957702637,398.47707748413086,1333,1
61,control,13.0,17,1,297.9400157928467,395.3690528869629,1479,1
62,control,14.0,17,1,100.57711601257324,682.0642948150635,1049,1
63,control,15.0,17,1,394.237756729126,394.23179626464844,1495,1
64,control,16.0,17,1,726.3228893280029,726.3188362121582,1439,1
65,control,17.0,17,1,592.4820899963379,592.4739837646484,1399,1
66,control,18.0,17,1,592.5619602203369,592.5610065460205,1154,1
67,control,19.0,17,1,427.66809463500977,427.66284942626953,1191,1
68,control,20.0,17,1,691.3440227508545,691.3390159606934,902,1
69,control,21.0,17,1,591.7291641235352,591.7272567749023,1334,1
70,control,22.0,17,1,1515.9602165222168,1515.9542560577393,1450,1
71,control,23.0,17,1,889.6698951721191,889.6620273590088,813,1
72,control,24.0,17,1,1386.6360187530518,1386.6307735443115,1064,1
73,control,25.0,17,1,493.5028553009033,493.4990406036377,1299,1
74,control,26.0,17,1,494.69900131225586,494.69518661499023,1254,1
75,control,27.0,17,1,593.3759212493896,593.3687686920166,1079,1
76,control,28.0,17,1,682.0900440216064,682.0881366729736,813,1
77,control,29.0,17,1,482.5451374053955,482.5439453125,1297,1
78,control,30.0,17,1,725.3830432891846,725.3789901733398,1214,1
79,control,5.0,17,1,197.49712944030762,583.5080146789551,1388,1
80,control,6.0,17,1,98.84285926818848,493.06583404541016,1232,1
81,control,7.0,17,1,592.6351547241211,592.6320552825928,1175,1
82,control,8.0,17,1,526.1127948760986,526.1068344116211,1189,1
83,control,9.0,17,1,97.87225723266602,494.42315101623535,1346,1
84,control,10.0,17,1,196.84791564941406,493.39985847473145,1251,1
85,control,11.0,17,1,485.33082008361816,485.32986640930176,1359,1
86,control,12.0,17,1,1287.2459888458252,1287.2419357299805,1426,1
87,control,13.0,17,1,385.23125648498535,385.23006439208984,1275,1
88,control,14.0,17,1,394.2272663116455,394.2241668701172,1088,1
89,control,15.0,17,1,404.8340320587158,404.829740524292,1498,1
90,control,16.0,17,1,1386.4240646362305,1386.4150047302246,895,1
91,control,17.0,17,1,493.1178092956543,493.11280250549316,994,1
92,control,18.0,17,0,1020.313024520874,1020.3068256378174,1192,1
93,control,19.0,17,1,591.9189453125,591.9170379638672,1187,1
94,control,20.0,17,1,583.967924118042,583.9669704437256,1299,1
95,control,21.0,17,1,98.91295433044434,416.0590171813965,1067,1
96,control,22.0,17,1,583.7969779968262,583.7960243225098,836,1
97,control,23.0,17,1,594.123125076294,594.1171646118164,1235,1
98,control,24.0,17,1,393.1241035461426,393.11981201171875,1100,1
99,control,25.0,17,1,491.37306213378906,491.37210845947266,1234,1
100,control,26.0,17,0,900.4809856414795,900.4790782928467,954,1
101,control,27.0,17,1,790.8918857574463,790.8840179443359,1127,1
102,control,28.0,17,1,583.716869354248,583.7156772613525,999,1
103,control,29.0,17,1,791.5079593658447,791.5048599243164,1378,1
104,control,30.0,17,0,1077.8090953826904,1077.8071880340576,1410,1
105,control,5.0,14,1,98.56081008911133,385.0107192993164,1337,1
106,control,6.0,14,1,494.0478801727295,494.0447807312012,982,1
107,control,7.0,14,1,492.0520782470703,492.04111099243164,1403,1
108,control,8.0,14,1,792.5748825073242,792.5717830657959,1320,1
109,control,9.0,14,1,592.3221111297607,592.3159122467041,1210,1
110,control,10.0,14,1,394.78111267089844,394.7749137878418,860,1
111,control,11.0,14,1,392.305850982666,392.3041820526123,1396,1
112,control,12.0,14,1,582.03125,582.0300579071045,1464,1
113,control,13.0,14,1,1021.075963973999,1021.0709571838379,892,1
114,control,14.0,14,1,498.8110065460205,498.8100528717041,1425,1
115,control,15.0,14,1,595.430850982666,595.4298973083496,1191,1
116,control,16.0,14,1,581.2489986419678,581.2480449676514,1414,1
117,control,17.0,14,1,583.0769538879395,583.075761795044,1116,1
118,control,18.0,20,1,493.23320388793945,493.2291507720947,830,1
119,control,19.0,14,1,614.7892475128174,614.7892475128174,1020,1
120,control,20.0,14,1,484.4229221343994,484.4217300415039,1125,1
121,control,21.0,14,1,593.5139656066895,593.5099124908447,1192,1
122,control,22.0,14,1,591.5431976318359,591.5420055389404,810,1
123,control,23.0,14,1,484.1878414154053,484.18617248535156,1093,1
124,control,24.0,14,1,497.905969619751,497.90310859680176,1377,1
125,control,25.0,14,1,494.9808120727539,494.9789047241211,926,1
126,control,26.0,20,1,624.363899230957,624.3629455566406,1005,1
127,control,27.0,14,1,702.5549411773682,702.549934387207,809,0
128,control,27.0,14,1,593.1591987609863,593.1539535522461,1233,1
129,control,28.0,14,1,395.2791690826416,395.27010917663574,1079,1
130,control,29.0,14,1,504.90498542785645,504.9009323120117,917,1
131,control,30.0,20,1,590.2292728424072,590.2242660522461,958,1
132,control,5.0,14,1,198.95601272583008,593.735933303833,1048,1
133,control,6.0,14,1,2111.1249923706055,2111.1209392547607,1029,1
134,control,7.0,14,1,430.7570457458496,430.7518005371094,855,1
135,control,8.0,14,1,625.8368492126465,625.8349418640137,1116,1
136,control,9.0,14,0,198.54211807250977,725.1729965209961,893,1
137,control,10.0,14,1,595.1519012451172,595.1480865478516,1272,1
138,control,11.0,14,1,98.71387481689453,988.0080223083496,870,1
139,control,12.0,14,1,595.0419902801514,595.0391292572021,829,1
140,control,13.0,14,1,692.9941177368164,692.9931640625,1117,1
141,control,14.0,14,1,597.3381996154785,597.3341464996338,830,1
142,control,15.0,14,1,482.60021209716797,482.59902000427246,1009,1
143,control,16.0,14,1,394.07801628112793,394.071102142334,1339,1
144,control,17.0,14,1,626.5542507171631,626.5530586242676,830,1
145,control,18.0,20,1,604.435920715332,604.4340133666992,1200,1
146,control,19.0,14,1,493.88909339904785,493.88599395751953,908,1
147,control,20.0,14,1,394.93823051452637,394.9320316314697,1487,1
148,control,21.0,14,1,1406.5792560577393,1406.5783023834229,1242,1
149,control,22.0,14,1,492.02609062194824,492.0203685760498,842,1
150,control,23.0,14,1,594.4457054138184,594.4430828094482,1304,1
151,control,24.0,14,1,795.0949668884277,795.0918674468994,1051,1
152,control,25.0,14,1,496.1526393890381,496.14691734313965,1038,1
153,control,26.0,20,1,590.3990268707275,590.39306640625,1016,1
154,control,27.0,14,1,491.16992950439453,491.1649227142334,1306,1
155,control,28.0,14,1,493.4988021850586,493.49093437194824,1474,1
156,control,29.0,14,1,702.4812698364258,702.4791240692139,1128,1
157,control,30.0,20,1,693.4750080108643,693.4740543365479,983,1
158,control,5.0,11,1,1024.4319438934326,1024.4300365447998,1400,1
159,control,6.0,11,1,199.10693168640137,584.197998046875,1430,1
160,control,7.0,11,1,198.93240928649902,593.1923389434814,1282,1
161,control,8.0,11,1,583.3709239959717,583.3702087402344,1499,1
162,control,9.0,17,1,497.03502655029297,497.03097343444824,812,1
163,control,10.0,11,1,1418.309211730957,1418.3080196380615,993,1
164,control,11.0,11,1,494.2960739135742,494.2920207977295,1456,1
165,control,12.0,11,1,197.42703437805176,493.41392517089844,1201,1
166,control,13.0,11,1,398.435115814209,398.4339237213135,982,1
167,control,14.0,11,1,386.2147331237793,386.2137794494629,1265,1
168,control,15.0,11,1,395.6468105316162,395.6458568572998,1125,1
169,control,16.0,11,1,590.7881259918213,590.7819271087646,1472,1
170,control,17.0,11,1,493.81399154663086,493.81089210510254,1048,1
171,control,18.0,18,1,594.1269397735596,594.1259860992432,1077,1
172,control,19.0,11,1,297.4128723144531,691.7018890380859,1070,1
173,control,20.0,11,1,591.8948650360107,591.8879508972168,1481,1
174,control,21.0,11,1,794.3820953369141,794.3792343139648,815,1
175,control,22.0,11,1,229.19297218322754,726.3438701629639,1103,1
176,control,23.0,11,1,823.8668441772461,823.8620758056641,1101,1
177,control,24.0,11,1,583.0721855163574,583.0709934234619,1233,1
178,control,25.0,11,1,593.1510925292969,593.1479930877686,1275,1
179,control,26.0,18,1,790.280818939209,790.2767658233643,962,1
180,control,27.0,11,0,979.1398048400879,979.1390895843506,1201,1
181,control,28.0,11,1,1010.9319686889648,1010.9307765960693,1131,1
182,control,29.0,11,1,1307.9721927642822,1307.9700469970703,1049,1
183,control,30.0,18,1,2109.687089920044,2109.6832752227783,1189,1
184,control,5.0,11,1,297.90711402893066,492.4139976501465,938,1
185,control,6.0,11,1,396.435022354126,396.42906188964844,1500,1
186,control,7.0,11,1,98.79779815673828,593.2347774505615,1093,1
187,control,8.0,11,1,492.99097061157227,492.98930168151855,847,1
188,control,9.0,17,1,98.79899024963379,1770.3571319580078,1271,1
189,control,10.0,11,1,198.40216636657715,587.9640579223633,1249,1
190,control,11.0,11,1,199.49102401733398,496.74510955810547,933,1
191,control,12.0,11,1,484.2391014099121,484.2381477355957,913,1
192,control,13.0,11,1,780.7087898254395,780.707836151123,958,1
193,control,14.0,11,1,494.9970245361328,494.9960708618164,974,1
194,control,15.0,11,1,494.1401481628418,494.1370487213135,1421,1
195,control,16.0,11,1,881.4411163330078,881.4401626586914,1145,1
196,control,17.0,11,1,494.5547580718994,494.5499897003174,1455,1
197,control,18.0,18,1,594.170093536377,594.1669940948486,1012,1
198,control,19.0,11,1,592.695951461792,592.6930904388428,1210,1
199,control,20.0,11,1,493.8843250274658,493.8821792602539,1495,1
200,control,21.0,11,1,626.4209747314453,626.4200210571289,1105,1
201,control,22.0,11,1,581.352949142456,581.3519954681396,1226,1
202,control,23.0,11,1,437.91794776916504,437.9141330718994,1179,1
203,control,24.0,11,1,825.1581192016602,825.1521587371826,1407,1
204,control,25.0,11,1,594.3050384521484,594.304084777832,1260,1
205,control,26.0,18,1,494.6308135986328,494.6279525756836,1253,1
206,control,27.0,14,1,506.1001777648926,506.09302520751953,1182,1
207,control,28.0,11,0,690.7851696014404,690.7789707183838,1031,1
208,control,29.0,11,0,878.8139820098877,878.8130283355713,1251,1
209,control,30.0,18,1,582.4460983276367,582.4449062347412,1447,1
210,control,5.0,8,1,98.67286682128906,482.13982582092285,1243,1
211,control,6.0,8,1,294.87109184265137,482.7079772949219,1027,1
212,control,7.0,8,1,100.99506378173828,494.1532611846924,835,1
213,control,8.0,8,1,879.7810077667236,879.7800540924072,1203,1
214,control,9.0,15,1,683.908224105835,683.9070320129395,1060,1
215,control,10.0,8,1,202.12292671203613,528.4101963043213,948,1
216,control,11.0,8,1,691.8730735778809,691.8699741363525,1254,1
217,control,12.0,8,1,492.34724044799805,492.3441410064697,1058,1
218,control,13.0,8,1,594.0511226654053,594.0492153167725,1199,1
219,control,14.0,8,1,494.37999725341797,494.37403678894043,1344,1
220,control,15.0,8,1,1020.5769538879395,1020.5750465393066,1174,1
221,control,16.0,8,0,977.4868488311768,977.4858951568604,1436,1
222,control,17.0,8,1,484.03120040893555,484.03000831604004,940,1
223,control,18.0,17,1,682.5048923492432,682.5039386749268,1282,1
224,control,19.0,8,0,822.1268653869629,822.124719619751,817,1
225,control,20.0,8,0,1773.3089923858643,1773.3078002929688,1462,1
226,control,21.0,8,1,98.46925735473633,889.923095703125,959,1
227,control,22.0,8,1,725.4080772399902,725.4059314727783,915,1
228,control,23.0,8,1,790.3790473937988,790.3721332550049,1253,1
229,control,24.0,8,0,3988.9700412750244,3988.968849182129,1420,1
230,control,25.0,8,1,910.9318256378174,910.930871963501,1074,1
231,control,26.0,17,1,493.2291507720947,493.2253360748291,1143,1
232,control,27.0,14,1,492.89894104003906,492.89488792419434,1494,1
233,control,28.0,14,1,725.3360748291016,725.3291606903076,853,1
234,control,29.0,14,1,492.73204803466797,492.73109436035156,1373,1
235,control,30.0,17,1,493.76606941223145,493.7620162963867,1082,1
236,control,5.0,8,1,493.9451217651367,493.9429759979248,1173,1
237,control,6.0,8,1,397.16100692749023,494.95506286621094,1018,1
238,control,7.0,8,1,98.52743148803711,493.577241897583,833,1
239,control,8.0,8,1,99.32065010070801,492.0318126678467,1466,1
240,control,9.0,15,1,97.9158878326416,491.87183380126953,1157,1
241,control,10.0,8,1,494.69804763793945,494.68326568603516,1073,1
242,control,11.0,8,1,492.4309253692627,492.42591857910156,915,1
243,control,12.0,8,1,99.94983673095703,627.3400783538818,1426,1
244,control,13.0,8,1,98.28400611877441,493.2849407196045,1478,1
245,control,14.0,8,1,100.06594657897949,505.0528049468994,880,1
246,control,15.0,8,0,889.901876449585,889.8968696594238,972,1
247,control,16.0,11,1,485.60214042663574,485.5999946594238,1115,1
248,control,17.0,8,1,493.00670623779297,492.9935932159424,1276,1
249,control,18.0,17,1,494.25697326660156,494.25482749938965,1382,1
250,control,19.0,11,1,495.10979652404785,495.10693550109863,1470,1
251,control,20.0,11,1,625.3681182861328,625.3631114959717,1476,1
252,control,21.0,8,0,682.2431087493896,682.2421550750732,1332,1
253,control,22.0,8,0,98.71292114257812,978.4488677978516,1360,1
254,control,23.0,8,1,592.0419692993164,592.041015625,1465,1
255,control,24.0,11,1,382.979154586792,382.9782009124756,1206,1
256,control,25.0,8,0,295.4108715057373,295.40181159973145,1021,1
257,control,26.0,17,1,593.4178829193115,593.4121608734131,1445,1
258,control,27.0,12,1,691.2641525268555,691.2612915039062,1075,1
259,control,28.0,14,1,624.5541572570801,624.5501041412354,1184,1
260,control,29.0,14,1,590.8100605010986,590.8079147338867,806,1
261,control,30.0,17,1,307.08980560302734,307.0869445800781,1430,1
262,control,5.0,5,1,99.11608695983887,595.1464176177979,938,1
263,control,6.0,5,1,198.38595390319824,602.7641296386719,876,1
264,control,7.0,5,1,493.9148426055908,493.9126968383789,1357,1
265,control,8.0,5,1,99.08294677734375,506.46114349365234,896,1
266,control,9.0,14,1,433.8419437408447,433.8407516479492,1435,1
267,control,10.0,5,1,624.8540878295898,624.8457431793213,800,1
268,control,11.0,5,1,98.6928939819336,900.0380039215088,1129,1
269,control,12.0,5,1,802.46901512146,802.462100982666,937,1
270,control,13.0,5,1,604.6090126037598,604.6061515808105,1498,1
271,control,14.0,5,1,889.5149230957031,889.5127773284912,1374,1
272,control,15.0,11,0,198.991060256958,593.1379795074463,952,1
273,control,16.0,11,1,524.9888896942139,524.9879360198975,1278,1
274,control,17.0,5,0,600.9290218353271,600.9190082550049,1428,1
275,control,18.0,15,1,694.0791606903076,694.0770149230957,1034,1
276,control,19.0,11,1,497.52092361450195,497.51925468444824,834,1
277,control,20.0,11,1,132.74407386779785,531.5909385681152,1361,1
278,control,21.0,11,0,921.6201305389404,921.6160774230957,1219,1
279,control,22.0,11,1,595.4079627990723,595.4060554504395,1311,1
280,control,23.0,5,0,889.5618915557861,889.5602226257324,1231,1
281,control,24.0,11,1,581.7537307739258,581.7527770996094,935,1
282,control,25.0,11,1,502.24924087524414,502.24828720092773,938,1
283,control,26.0,15,1,591.0820960998535,591.0801887512207,900,1
284,control,27.0,12,0,1484.4541549682617,1484.4532012939453,1361,1
285,control,28.0,12,0,823.1019973754883,823.0981826782227,1253,1
286,control,29.0,12,1,582.2558403015137,582.2536945343018,913,1
287,control,30.0,15,1,690.960168838501,690.9570693969727,1184,1
288,control,5.0,5,0,199.7513771057129,689.4400119781494,1134,1
289,control,6.0,5,1,99.04313087463379,495.39804458618164,1020,1
290,control,7.0,5,1,197.17907905578613,593.7540531158447,1334,1
291,control,8.0,5,1,99.60079193115234,494.34685707092285,1471,1
292,control,9.0,14,1,1581.658124923706,1581.6519260406494,1471,1
293,control,10.0,5,1,198.5330581665039,516.772985458374,1352,1
294,control,11.0,5,1,901.6671180725098,901.6649723052979,1183,1
295,control,12.0,5,0,921.8289852142334,921.8268394470215,1492,1
296,control,13.0,5,1,689.5022392272949,689.4991397857666,1440,1
297,control,14.0,5,1,504.15515899658203,504.1520595550537,863,1
298,control,15.0,14,1,494.65012550354004,494.64917182922363,878,1
299,control,16.0,9,1,494.6169853210449,494.6160316467285,1053,1
300,control,17.0,8,1,427.1240234375,427.1209239959717,1065,1
301,control,18.0,15,1,634.4728469848633,634.4709396362305,1203,1
302,control,19.0,9,0,813.1051063537598,813.1041526794434,867,1
303,control,20.0,9,1,790.3308868408203,790.3265953063965,957,1
304,control,21.0,14,1,493.9231872558594,493.92104148864746,1117,1
305,control,22.0,11,0,879.2181015014648,879.216194152832,947,1
306,control,23.0,8,1,681.6587448120117,681.6577911376953,1393,1
307,control,24.0,9,1,604.7420501708984,604.7399044036865,842,1
308,control,25.0,11,1,495.1519966125488,495.1479434967041,954,1
309,control,26.0,15,1,395.75910568237305,395.75719833374023,1065,1
310,control,27.0,14,1,697.3719596862793,697.3698139190674,1119,1
311,control,28.0,14,1,593.879222869873,593.8661098480225,900,1
312,control,29.0,12,1,483.44922065734863,483.4480285644531,1101,1
313,control,30.0,15,1,494.95601654052734,494.95410919189453,1101,1
314,control,5.0,8,1,99.41887855529785,592.5779342651367,927,1
315,control,6.0,2,1,100.09336471557617,890.9652233123779,1073,1
316,control,7.0,2,0,99.26509857177734,879.9841403961182,1409,1
317,control,8.0,2,0,881.0989856719971,881.0980319976807,851,1
318,control,9.0,12,1,715.1918411254883,715.1908874511719,1058,1
319,control,10.0,2,0,297.8858947753906,1021.500825881958,843,1
320,control,11.0,2,1,98.22583198547363,691.1008358001709,1098,1
321,control,12.0,8,1,393.30506324768066,393.2960033416748,822,1
322,control,13.0,2,0,691.1830902099609,691.1790370941162,1283,1
323,control,14.0,2,0,691.6391849517822,691.6379928588867,1012,1
324,control,15.0,14,1,493.664026260376,493.66116523742676,1070,1
325,control,16.0,9,1,882.683277130127,882.681131362915,983,1
326,control,17.0,8,1,494.1709041595459,494.1699504852295,1454,1
327,control,18.0,14,1,516.9730186462402,516.9720649719238,1141,1
328,control,19.0,11,1,582.2820663452148,582.2808742523193,1466,1
329,control,20.0,9,1,593.8031673431396,593.8000679016113,1255,1
330,control,21.0,14,1,494.0159320831299,494.01402473449707,947,1
331,control,22.0,12,1,486.0978126525879,486.0968589782715,965,1
332,control,23.0,8,1,582.862138748169,582.8609466552734,954,1
333,control,24.0,9,1,505.70225715637207,505.69820404052734,1024,1
334,control,25.0,9,0,682.7192306518555,682.7182769775391,1301,1
335,control,26.0,14,1,499.06110763549805,499.0570545196533,988,1
336,control,27.0,14,1,801.2869358062744,801.2819290161133,1476,1
337,control,28.0,14,1,626.3213157653809,626.3201236724854,843,1
338,control,29.0,11,1,622.8420734405518,622.8368282318115,986,1
339,control,30.0,14,1,1879.8317909240723,1879.8248767852783,1231,1
340,control,5.0,8,1,197.0820426940918,584.2649936676025,892,1
341,control,6.0,2,0,1517.4269676208496,1517.4250602722168,1162,1
342,control,7.0,5,1,294.3711280822754,1880.763053894043,1065,1
343,control,8.0,5,1,1671.658992767334,1671.6578006744385,1161,1
344,control,9.0,12,1,527.5390148162842,527.534008026123,1313,1
345,control,10.0,5,1,691.0727024078369,691.0707950592041,1121,1
346,control,11.0,2,1,894.7968482971191,894.7949409484863,1469,1
347,control,12.0,8,1,494.46702003479004,494.4648742675781,1423,1
348,control,13.0,5,1,581.9129943847656,581.9108486175537,1119,1
349,control,14.0,5,1,494.34971809387207,494.34709548950195,1395,1
350,control,15.0,12,1,98.70696067810059,394.8559761047363,1225,1
351,control,16.0,8,1,601.8099784851074,601.8040180206299,804,1
352,control,17.0,6,1,429.2118549346924,429.2106628417969,1482,1
353,control,18.0,14,1,583.8901996612549,583.8890075683594,1130,1
354,control,19.0,11,1,98.7851619720459,496.6249465942383,1143,1
355,control,20.0,8,0,690.5369758605957,690.5341148376465,1182,1
356,control,21.0,12,1,523.8769054412842,523.8699913024902,1172,1
357,control,22.0,12,1,526.2031555175781,526.198148727417,1013,1
358,control,23.0,6,1,715.277910232544,715.2769565582275,1175,1
359,control,24.0,8,1,722.6400375366211,722.6371765136719,1245,1
360,control,25.0,11,1,624.3181228637695,624.3128776550293,976,1
361,control,26.0,14,1,691.5421485900879,691.5380954742432,1483,1
362,control,27.0,13,1,593.2767391204834,593.2750701904297,1164,1
363,control,28.0,13,1,285.9609127044678,484.0986728668213,1389,1
364,control,29.0,11,1,891.4639949798584,891.463041305542,1299,1
365,control,30.0,14,0,1086.4548683166504,1086.4529609680176,957,1
366,control,5.0,6,1,99.84993934631348,496.9608783721924,907,1
367,control,6.0,5,1,95.82901000976562,786.909818649292,1061,1
368,control,7.0,5,1,99.08390045166016,495.6338405609131,1016,1
369,control,8.0,5,1,100.65388679504395,637.0229721069336,1211,1
370,control,9.0,11,1,495.6011772155762,495.59593200683594,1212,1
371,control,10.0,5,1,592.9920673370361,592.9889678955078,1281,1
372,control,11.0,1,1,98.83809089660645,891.2780284881592,1355,1
373,control,12.0,6,1,582.4949741363525,582.4940204620361,1497,1
374,control,13.0,5,1,527.379035949707,527.3780822753906,1374,1
375,control,14.0,5,0,721.7888832092285,721.7838764190674,1315,1
376,control,15.0,12,1,691.3049221038818,691.303014755249,856,1
377,control,16.0,8,1,590.5849933624268,590.583086013794,994,1
378,control,17.0,6,1,890.9890651702881,890.9881114959717,1158,1
379,control,18.0,12,1,503.0529499053955,503.0510425567627,881,1
380,control,19.0,10,1,595.512866973877,595.5100059509277,1216,1
381,control,20.0,9,1,593.5611724853516,593.559980392456,965,1
382,control,21.0,12,1,494.21191215515137,494.204044342041,1404,1
383,control,22.0,11,1,405.7309627532959,405.72595596313477,1005,1
384,control,23.0,6,1,714.4730091094971,714.4720554351807,1077,1
385,control,24.0,8,1,494.9917793273926,494.9908256530762,905,1
386,control,25.0,11,1,999.9837875366211,999.9778270721436,1455,1
387,control,26.0,12,0,623.1198310852051,623.115062713623,1000,1
1,quadbright,5.0,20,1,198.2898712158203,1088.1550312042236,1031,1
2,quadbright,6.0,20,1,98.92392158508301,494.204044342041,1145,1
3,quadbright,7.0,20,1,101.2270450592041,405.6282043457031,1142,1
4,quadbright,8.0,20,1,198.86493682861328,594.7589874267578,999,1
5,quadbright,9.0,20,1,594.7740077972412,594.7670936584473,1163,1
6,quadbright,10.0,20,1,593.9149856567383,593.9140319824219,1410,1
7,quadbright,11.0,20,1,493.10898780822754,493.10302734375,938,1
8,quadbright,12.0,20,1,593.350887298584,593.3499336242676,1492,1
9,quadbright,13.0,20,1,484.1451644897461,484.1442108154297,1324,1
10,quadbright,14.0,20,1,590.886116027832,590.8839702606201,1183,1
11,quadbright,15.0,20,1,593.142032623291,593.1358337402344,901,1
12,quadbright,16.0,20,1,582.4830532073975,582.4830532073975,1415,1
13,quadbright,17.0,20,1,523.4339237213135,523.4329700469971,1128,1
14,quadbright,18.0,20,1,397.5481986999512,397.54295349121094,876,1
15,quadbright,19.0,20,1,494.4188594818115,494.4179058074951,1325,1
16,quadbright,20.0,20,1,594.1157341003418,594.1157341003418,880,1
17,quadbright,21.0,20,1,405.84707260131836,405.84397315979004,1193,1
18,quadbright,22.0,20,1,493.8161373138428,493.81303787231445,1209,1
19,quadbright,23.0,20,1,493.1461811065674,493.1378364562988,870,1
20,quadbright,24.0,20,1,527.4078845977783,527.4059772491455,855,1
21,quadbright,25.0,20,1,492.5878047943115,492.581844329834,877,1
22,quadbright,26.0,20,1,1616.3859367370605,1616.3849830627441,912,1
23,quadbright,27.0,20,1,1872.5619316101074,1872.560977935791,1472,1
24,quadbright,28.0,20,1,582.1540355682373,582.1528434753418,1160,1
25,quadbright,29.0,20,1,583.2970142364502,583.2958221435547,1210,1
26,quadbright,30.0,20,0,888.5359764099121,888.5319232940674,1043,1
27,quadbright,5.0,20,1,98.93202781677246,396.3358402252197,1452,1
28,quadbright,6.0,20,1,198.85969161987305,594.0468311309814,1362,1
29,quadbright,7.0,20,1,427.89411544799805,427.89316177368164,916,1
30,quadbright,8.0,20,1,99.52878952026367,1781.761884689331,1366,1
31,quadbright,9.0,20,1,495.07713317871094,495.074987411499,897,1
32,quadbright,10.0,20,1,195.1899528503418,492.94304847717285,856,1
33,quadbright,11.0,20,1,198.80008697509766,495.466947555542,952,1
34,quadbright,12.0,20,1,402.4240970611572,402.4181365966797,1202,1
35,quadbright,13.0,20,1,494.04120445251465,494.0359592437744,1138,1
36,quadbright,14.0,20,1,493.88980865478516,493.88599395751953,869,1
37,quadbright,15.0,20,1,593.3051109313965,593.2972431182861,937,1
38,quadbright,16.0,20,1,395.50209045410156,395.50018310546875,1085,1
39,quadbright,17.0,20,1,495.0258731842041,495.0249195098877,943,1
40,quadbright,18.0,20,1,99.7769832611084,483.44898223876953,1208,1
41,quadbright,19.0,20,1,503.0407905578613,503.0388832092285,1084,1
42,quadbright,20.0,20,1,496.66404724121094,496.6609477996826,886,1
43,quadbright,21.0,20,1,593.9769744873047,593.9750671386719,1499,1
44,quadbright,22.0,20,1,493.5729503631592,493.57008934020996,808,1
45,quadbright,23.0,20,1,598.2329845428467,598.2279777526855,1189,1
46,quadbright,24.0,20,1,393.99027824401855,393.98717880249023,1232,1
47,quadbright,25.0,20,1,493.516206741333,493.5109615325928,881,1
48,quadbright,26.0,20,1,392.6079273223877,392.6069736480713,1350,1
49,quadbright,27.0,20,1,797.205924987793,797.2040176391602,839,1
50,quadbright,28.0,20,1,496.59109115600586,496.58918380737305,1386,1
51,quadbright,29.0,20,1,594.810962677002,594.8009490966797,1406,1
52,quadbright,30.0,23,1,396.73495292663574,396.73399925231934,1189,1
53,quadbright,5.0,17,1,98.86884689331055,493.39985847473145,1459,1
54,quadbright,6.0,17,1,494.01378631591797,494.00877952575684,1254,1
55,quadbright,7.0,17,1,627.4151802062988,627.4130344390869,1042,1
56,quadbright,8.0,17,1,527.0471572875977,527.0450115203857,968,1
57,quadbright,9.0,17,1,105.3769588470459,432.93094635009766,1198,1
58,quadbright,10.0,17,1,405.12776374816895,405.1249027252197,996,1
59,quadbright,11.0,17,1,199.3117332458496,493.36695671081543,1183,1
60,quadbright,12.0,17,1,603.8682460784912,603.8639545440674,883,1
61,quadbright,13.0,17,1,198.07887077331543,590.662956237793,993,1
62,quadbright,14.0,17,1,494.0359592437744,494.0309524536133,1150,1
63,quadbright,15.0,17,1,100.49200057983398,2168.581247329712,1115,1
64,quadbright,16.0,17,1,428.10702323913574,428.10583114624023,1263,1
65,quadbright,17.0,17,1,485.0950241088867,485.0950241088867,1299,1
66,quadbright,18.0,17,1,493.93177032470703,493.9291477203369,1369,1
67,quadbright,19.0,17,1,504.64582443237305,504.6420097351074,1094,1
68,quadbright,20.0,17,1,691.5581226348877,691.554069519043,800,1
69,quadbright,21.0,17,1,691.2503242492676,691.2462711334229,1140,1
70,quadbright,22.0,17,0,1009.9189281463623,1009.9167823791504,1442,1
71,quadbright,23.0,17,1,681.0109615325928,681.0109615325928,980,1
72,quadbright,24.0,17,1,589.5559787750244,589.5516872406006,909,1
73,quadbright,25.0,17,1,604.0439605712891,604.0408611297607,1014,1
74,quadbright,26.0,17,1,525.6998538970947,525.698184967041,1431,1
75,quadbright,27.0,17,1,692.6488876342773,692.6450729370117,903,1
76,quadbright,28.0,17,1,494.9769973754883,494.97294425964355,1151,1
77,quadbright,29.0,17,1,593.1830406188965,593.1808948516846,1151,1
78,quadbright,30.0,23,1,394.7031497955322,394.7010040283203,1167,1
79,quadbright,5.0,17,1,504.1508674621582,504.1501522064209,1228,1
80,quadbright,6.0,17,1,99.33805465698242,394.85692977905273,1137,1
81,quadbright,7.0,17,1,593.2259559631348,593.2228565216064,809,1
82,quadbright,8.0,17,1,395.19405364990234,395.186185836792,1475,1
83,quadbright,9.0,17,1,101.35078430175781,429.0468692779541,956,1
84,quadbright,10.0,17,1,492.3989772796631,492.39516258239746,1232,1
85,quadbright,11.0,17,1,494.365930557251,494.365930557251,1084,1
86,quadbright,12.0,17,1,691.7738914489746,691.7691230773926,824,1
87,quadbright,13.0,17,1,681.4849376678467,681.4849376678467,1240,1
88,quadbright,14.0,17,1,102.21076011657715,500.84996223449707,962,1
89,quadbright,15.0,17,1,1374.7341632843018,1374.7341632843018,936,1
90,quadbright,16.0,17,1,483.1349849700928,483.13379287719727,1004,1
91,quadbright,17.0,17,1,789.8869514465332,789.8831367492676,1382,1
92,quadbright,18.0,17,1,592.7748680114746,592.7717685699463,1085,1
93,quadbright,19.0,17,1,484.1618537902832,484.1609001159668,1088,1
94,quadbright,20.0,17,1,593.4631824493408,593.4593677520752,936,1
95,quadbright,21.0,17,1,493.8020706176758,493.79897117614746,865,1
96,quadbright,22.0,20,0,921.91481590271,921.9131469726562,1382,1
97,quadbright,23.0,17,1,626.4278888702393,626.4219284057617,1234,1
98,quadbright,24.0,17,1,890.4130458831787,890.408992767334,855,1
99,quadbright,25.0,17,1,2398.919105529785,2398.9181518554688,1228,1
100,quadbright,26.0,17,1,590.5208587646484,590.5191898345947,1377,1
101,quadbright,27.0,17,1,930.6747913360596,930.6716918945312,1405,1
102,quadbright,28.0,17,1,584.4061374664307,584.4061374664307,1174,1
103,quadbright,29.0,17,1,484.0080738067627,484.0080738067627,1500,1
104,quadbright,30.0,20,1,492.3429489135742,492.3391342163086,1022,1
105,quadbright,5.0,14,1,197.97825813293457,494.3280220031738,1271,1
106,quadbright,6.0,14,1,99.79605674743652,520.7390785217285,964,1
107,quadbright,7.0,14,1,492.98787117004395,492.98596382141113,967,1
108,quadbright,8.0,14,1,199.33271408081055,594.2809581756592,1176,1
109,quadbright,9.0,14,1,592.8597450256348,592.85569190979,1157,1
110,quadbright,10.0,14,1,198.40312004089355,582.9188823699951,1255,1
111,quadbright,11.0,14,1,197.8168487548828,592.5579071044922,1156,1
112,quadbright,12.0,14,1,97.84698486328125,494.20809745788574,805,1
113,quadbright,13.0,14,1,490.2229309082031,490.2210235595703,1209,1
114,quadbright,14.0,14,1,484.6358299255371,484.6348762512207,1366,1
115,quadbright,15.0,14,1,493.9558506011963,493.95203590393066,1112,1
116,quadbright,16.0,14,1,1198.0550289154053,1198.0478763580322,857,1
117,quadbright,17.0,14,1,812.8912448883057,812.8902912139893,1230,1
118,quadbright,18.0,14,1,614.9768829345703,614.9759292602539,1382,1
119,quadbright,19.0,14,1,584.3758583068848,584.3749046325684,1411,1
120,quadbright,20.0,14,1,494.92406845092773,494.9219226837158,1366,1
121,quadbright,21.0,14,1,526.5481472015381,526.5460014343262,899,1
122,quadbright,22.0,23,1,758.958101272583,758.9550018310547,816,1
123,quadbright,23.0,14,1,295.2289581298828,713.9928340911865,1458,1
124,quadbright,24.0,14,1,713.5989665985107,713.5989665985107,1407,1
125,quadbright,25.0,14,1,691.849946975708,691.8470859527588,930,1
126,quadbright,26.0,14,0,592.1759605407715,592.1730995178223,1121,1
127,quadbright,27.0,14,1,691.4811134338379,691.4799213409424,1430,1
128,quadbright,28.0,14,0,494.0202236175537,494.01021003723145,1291,1
129,quadbright,29.0,14,1,600.6340980529785,600.6300449371338,838,1
130,quadbright,30.0,20,0,987.6399040222168,987.6370429992676,1261,1
131,quadbright,5.0,14,1,197.39103317260742,496.55818939208984,1033,1
132,quadbright,6.0,14,1,206.17175102233887,592.8347110748291,1093,1
133,quadbright,7.0,14,1,196.86484336853027,393.9859867095947,851,1
134,quadbright,8.0,14,1,99.16996955871582,505.74612617492676,1240,1
135,quadbright,9.0,14,1,584.6521854400635,584.6512317657471,1098,1
136,quadbright,10.0,14,1,199.62596893310547,596.3730812072754,1227,1
137,quadbright,11.0,14,1,99.01595115661621,623.3749389648438,841,1
138,quadbright,12.0,14,1,527.9800891876221,527.9760360717773,1470,1
139,quadbright,13.0,14,1,525.6960391998291,525.691032409668,969,1
140,quadbright,14.0,14,1,595.8161354064941,595.8130359649658,1319,1
141,quadbright,15.0,14,1,781.4679145812988,781.4669609069824,1234,1
142,quadbright,16.0,14,1,609.4520092010498,609.4489097595215,1358,1
143,quadbright,17.0,14,1,426.4199733734131,426.41711235046387,1324,1
144,quadbright,18.0,14,1,526.8950462341309,526.8921852111816,1173,1
145,quadbright,19.0,14,1,100.1591682434082,923.8619804382324,899,1
146,quadbright,20.0,14,1,496.20699882507324,496.204137802124,1014,1
147,quadbright,21.0,14,1,591.9010639190674,591.8960571289062,826,1
148,quadbright,22.0,23,1,98.72889518737793,393.18180084228516,964,1
149,quadbright,23.0,14,0,595.038890838623,595.0360298156738,941,1
150,quadbright,24.0,14,1,494.83489990234375,494.83299255371094,1211,1
151,quadbright,25.0,14,1,736.3426685333252,736.3409996032715,1114,1
152,quadbright,26.0,17,1,703.488826751709,703.4800052642822,1336,1
153,quadbright,27.0,14,1,791.144847869873,791.1427021026611,1252,1
154,quadbright,28.0,17,1,593.674898147583,593.6729907989502,1000,1
155,quadbright,29.0,14,0,1033.1659317016602,1033.1640243530273,1067,1
156,quadbright,30.0,23,1,525.515079498291,525.5129337310791,1264,1
157,quadbright,5.0,11,1,198.38714599609375,525.9480476379395,812,1
158,quadbright,6.0,11,1,494.4620132446289,494.4567680358887,1003,1
159,quadbright,7.0,11,1,98.83594512939453,500.34093856811523,1012,1
160,quadbright,8.0,11,1,406.0661792755127,406.06188774108887,1366,1
161,quadbright,9.0,11,1,393.3110237121582,393.30506324768066,1351,1
162,quadbright,10.0,11,1,99.48396682739258,880.0971508026123,859,1
163,quadbright,11.0,11,1,498.5659122467041,498.5640048980713,1362,1
164,quadbright,12.0,11,1,98.99592399597168,592.9207801818848,1368,1
165,quadbright,13.0,11,1,492.60520935058594,492.6033020019531,1414,1
166,quadbright,14.0,11,1,197.90196418762207,499.053955078125,1261,1
167,quadbright,15.0,11,1,594.7437286376953,594.7418212890625,919,1
168,quadbright,16.0,11,1,625.4379749298096,625.434160232544,919,1
169,quadbright,17.0,11,1,791.8491363525391,791.8438911437988,928,1
170,quadbright,18.0,11,1,498.02112579345703,498.0192184448242,1003,0
171,quadbright,18.0,11,1,198.0721950531006,904.5932292938232,931,1
172,quadbright,19.0,11,1,593.7910079956055,593.7879085540771,1323,1
173,quadbright,20.0,11,1,1296.9601154327393,1296.9529628753662,1130,1
174,quadbright,21.0,11,1,1021.4488506317139,1021.4450359344482,1106,1
175,quadbright,22.0,21,1,498.42000007629395,498.41785430908203,1448,1
176,quadbright,23.0,17,1,495.1589107513428,495.15390396118164,1146,1
177,quadbright,24.0,11,1,989.9487495422363,989.9446964263916,830,1
178,quadbright,25.0,11,1,604.5103073120117,604.506254196167,1460,1
179,quadbright,26.0,17,1,715.0232791900635,715.022087097168,1344,1
180,quadbright,27.0,11,0,880.2549839019775,880.2540302276611,1259,1
181,quadbright,28.0,17,1,594.0032005310059,593.9931869506836,1408,1
182,quadbright,29.0,17,1,594.1569805145264,594.15602684021,1060,1
183,quadbright,30.0,23,1,492.6598072052002,492.6571846008301,939,1
184,quadbright,5.0,11,1,230.11183738708496,526.5598297119141,879,1
185,quadbright,6.0,11,1,496.9451427459717,496.9439506530762,1299,1
186,quadbright,7.0,11,0,97.40638732910156,1383.3222389221191,952,1
187,quadbright,8.0,11,0,1219.3360328674316,1219.3329334259033,973,1
188,quadbright,9.0,11,1,493.8929080963135,493.89004707336426,1295,1
189,quadbright,10.0,11,1,198.00806045532227,691.5771961212158,847,1
190,quadbright,11.0,11,1,197.86715507507324,707.3721885681152,1156,1
191,quadbright,12.0,11,1,100.40283203125,599.4448661804199,1303,1
192,quadbright,13.0,11,1,593.4672355651855,593.4641361236572,927,1
193,quadbright,14.0,11,1,208.3449363708496,504.29296493530273,1335,1
194,quadbright,15.0,11,1,590.8989906311035,590.8958911895752,858,1
195,quadbright,16.0,11,0,922.4257469177246,922.4216938018799,1428,1
196,quadbright,17.0,11,1,493.0140972137451,493.0071830749512,1378,1
197,quadbright,18.0,11,1,594.6359634399414,594.6359634399414,1279,1
198,quadbright,19.0,11,1,614.3789291381836,614.3779754638672,1456,1
199,quadbright,20.0,11,0,1506.1488151550293,1506.148099899292,1186,1
200,quadbright,21.0,11,1,1103.072166442871,1103.0693054199219,1055,1
201,quadbright,22.0,21,1,593.2180881500244,593.2130813598633,880,1
202,quadbright,23.0,17,1,96.58312797546387,392.1070098876953,1032,0
203,quadbright,23.0,17,1,603.0151844024658,603.0089855194092,1245,1
204,quadbright,24.0,11,1,791.8410301208496,791.8391227722168,1373,1
205,quadbright,25.0,11,1,592.9598808288574,592.9579734802246,1361,1
206,quadbright,26.0,15,0,1022.8941440582275,1022.88818359375,997,1
207,quadbright,27.0,14,1,597.8150367736816,597.8128910064697,950,1
208,quadbright,28.0,15,1,1386.4760398864746,1386.4738941192627,1234,1
209,quadbright,29.0,17,1,901.4410972595215,901.4389514923096,1432,1
210,quadbright,30.0,21,1,791.618824005127,791.6162014007568,865,1
211,quadbright,5.0,8,1,98.76418113708496,2001.0430812835693,801,1
212,quadbright,6.0,8,1,487.93578147888184,487.93482780456543,867,1
213,quadbright,7.0,14,1,497.481107711792,497.4801540374756,940,1
214,quadbright,8.0,14,1,98.51789474487305,604.34889793396,1447,1
215,quadbright,9.0,8,0,98.04916381835938,526.2589454650879,972,1
216,quadbright,10.0,8,1,288.4199619293213,584.6457481384277,869,1
217,quadbright,11.0,8,1,495.3789710998535,495.3780174255371,1248,1
218,quadbright,12.0,8,1,483.0629825592041,483.0617904663086,1366,1
219,quadbright,13.0,8,1,394.2558765411377,394.2537307739258,1418,1
220,quadbright,14.0,8,1,1000.978946685791,1000.9768009185791,1267,1
221,quadbright,15.0,8,1,594.2120552062988,594.2099094390869,1237,1
222,quadbright,16.0,14,1,494.13514137268066,494.1270351409912,1000,1
223,quadbright,17.0,8,0,691.8060779571533,691.7979717254639,864,1
224,quadbright,18.0,8,1,934.2730045318604,934.269905090332,1309,1
225,quadbright,19.0,8,1,879.4229030609131,879.4219493865967,1102,1
226,quadbright,20.0,14,1,682.8610897064209,682.8598976135254,927,1
227,quadbright,21.0,8,1,1572.0458030700684,1572.045087814331,1145,1
228,quadbright,22.0,20,1,695.1420307159424,695.141077041626,1332,1
229,quadbright,23.0,15,1,978.5768985748291,978.5761833190918,1064,0
230,quadbright,23.0,15,1,1496.488094329834,1496.4821338653564,888,1
231,quadbright,24.0,8,0,1011.5036964416504,1011.502742767334,1302,1
232,quadbright,25.0,8,0,780.4877758026123,780.487060546875,1015,1
233,quadbright,26.0,17,1,488.37780952453613,488.3759021759033,1052,1
234,quadbright,27.0,14,1,689.0249252319336,689.0230178833008,874,1
235,quadbright,28.0,15,1,593.4960842132568,593.4948921203613,1236,1
236,quadbright,29.0,15,0,604.6791076660156,604.6769618988037,1334,1
237,quadbright,30.0,21,1,582.2982788085938,582.2970867156982,984,1
238,quadbright,5.0,8,1,494.4460391998291,494.4450855255127,1252,1
239,quadbright,6.0,8,1,399.2581367492676,399.25599098205566,1424,1
240,quadbright,7.0,14,1,99.29490089416504,593.7380790710449,1353,1
241,quadbright,8.0,14,1,199.22995567321777,1022.3581790924072,1079,1
242,quadbright,9.0,11,1,724.7812747955322,724.776029586792,899,1
243,quadbright,10.0,8,1,481.7509651184082,481.7500114440918,1091,1
244,quadbright,11.0,8,1,493.7000274658203,493.696928024292,1391,1
245,quadbright,12.0,8,1,97.55086898803711,810.715913772583,1206,1
246,quadbright,13.0,8,1,493.53599548339844,493.5302734375,1057,1
247,quadbright,14.0,8,1,99.59697723388672,428.5430908203125,1095,1
248,quadbright,15.0,8,1,890.4447555541992,890.4440402984619,1392,1
249,quadbright,16.0,14,0,695.443868637085,695.4419612884521,1272,1
250,quadbright,17.0,11,1,527.2600650787354,527.259111404419,1277,1
251,quadbright,18.0,8,1,990.4658794403076,990.4649257659912,1492,1
252,quadbright,19.0,8,0,725.5251407623291,725.5241870880127,1328,1
253,quadbright,20.0,14,1,516.3750648498535,516.373872756958,941,1
254,quadbright,21.0,8,0,625.6229877471924,625.6170272827148,1307,1
255,quadbright,22.0,20,0,593.4028625488281,593.400239944458,1261,1
256,quadbright,23.0,15,1,594.8588848114014,594.8567390441895,1141,1
257,quadbright,24.0,11,1,880.6681632995605,880.6672096252441,1024,1
258,quadbright,25.0,11,1,625.7050037384033,625.7050037384033,1148,1
259,quadbright,26.0,17,1,493.53790283203125,493.53599548339844,953,1
260,quadbright,27.0,12,1,682.6679706573486,682.6670169830322,1282,1
261,quadbright,28.0,14,1,518.0070400238037,518.0058479309082,1313,1
262,quadbright,29.0,17,1,890.5601501464844,890.5580043792725,1396,1
263,quadbright,30.0,20,1,1229.1240692138672,1229.1219234466553,1010,1
264,quadbright,5.0,5,1,86.74001693725586,580.5881023406982,1331,1
265,quadbright,6.0,5,1,1417.5608158111572,1417.557954788208,1459,1
266,quadbright,7.0,12,1,132.24482536315918,525.3291130065918,898,1
267,quadbright,8.0,12,1,99.11990165710449,525.7768630981445,1059,1
268,quadbright,9.0,11,1,524.9919891357422,524.9898433685303,1143,1
269,quadbright,10.0,5,0,780.5020809173584,780.501127243042,1271,1
270,quadbright,11.0,5,1,592.6940441131592,592.6897525787354,1429,1
271,quadbright,12.0,5,0,692.2361850738525,692.230224609375,865,1
272,quadbright,13.0,5,0,99.62821006774902,703.131914138794,1368,1
273,quadbright,14.0,5,0,591.7198657989502,591.7167663574219,1187,1
274,quadbright,15.0,5,1,779.9627780914307,779.9618244171143,1323,1
275,quadbright,16.0,15,1,494.9309825897217,494.92907524108887,1473,1
276,quadbright,17.0,11,1,394.6499824523926,394.64807510375977,1337,1
277,quadbright,18.0,5,1,933.8350296020508,933.8328838348389,920,1
278,quadbright,19.0,11,0,691.6921138763428,691.6882991790771,1232,1
279,quadbright,20.0,12,1,287.0609760284424,583.8730335235596,1474,1
280,quadbright,21.0,11,1,583.7199687957764,583.7187767028809,1255,1
281,quadbright,22.0,21,1,581.94899559021,581.9480419158936,1117,1
282,quadbright,23.0,14,1,792.2568321228027,792.2539710998535,809,1
283,quadbright,24.0,11,1,779.5500755310059,779.5488834381104,895,1
284,quadbright,25.0,11,1,597.841739654541,597.8379249572754,1027,1
285,quadbright,26.0,16,1,626.1050701141357,626.1029243469238,1343,1
286,quadbright,27.0,12,1,694.659948348999,694.6580410003662,1113,1
287,quadbright,28.0,14,1,396.90518379211426,396.90208435058594,1329,1
288,quadbright,29.0,17,1,515.9249305725098,515.9239768981934,1395,1
289,quadbright,30.0,20,1,515.7737731933594,515.7699584960938,1397,1
290,quadbright,5.0,5,1,198.38881492614746,681.154727935791,1042,1
291,quadbright,6.0,5,1,592.3969745635986,592.3867225646973,1412,1
292,quadbright,7.0,12,1,492.9628372192383,492.96069145202637,1134,1
293,quadbright,8.0,12,1,98.91724586486816,526.4601707458496,976,1
294,quadbright,9.0,9,1,494.56119537353516,494.56000328063965,1406,1
295,quadbright,10.0,8,1,97.7783203125,492.4800395965576,1454,1
296,quadbright,11.0,5,1,482.89990425109863,482.8991889953613,1459,1
297,quadbright,12.0,8,1,482.9881191253662,482.9871654510498,1366,1
298,quadbright,13.0,8,1,198.70686531066895,596.2429046630859,804,1
299,quadbright,14.0,8,1,692.1250820159912,692.1238899230957,809,1
300,quadbright,15.0,5,1,689.3868446350098,689.382791519165,1308,1
301,quadbright,16.0,15,1,438.83204460144043,438.8282299041748,933,1
302,quadbright,17.0,9,0,813.4059906005859,813.4059906005859,1412,1
303,quadbright,18.0,5,1,100.91114044189453,825.2201080322266,957,1
304,quadbright,19.0,14,0,890.7849788665771,890.7797336578369,920,1
305,quadbright,20.0,12,1,691.9071674346924,691.9050216674805,1497,1
306,quadbright,21.0,11,1,890.9878730773926,890.9821510314941,917,1
307,quadbright,22.0,21,1,492.60687828063965,492.60592460632324,1067,1
308,quadbright,23.0,14,1,505.83887100219727,505.83505630493164,1359,1
309,quadbright,24.0,9,1,593.2722091674805,593.2691097259521,1194,1
310,quadbright,25.0,9,0,780.1947593688965,780.1940441131592,1129,1
311,quadbright,26.0,16,1,593.1799411773682,593.1758880615234,1005,1
312,quadbright,27.0,11,0,615.0128841400146,615.0119304656982,889,1
313,quadbright,28.0,12,1,989.8056983947754,989.799976348877,1446,1
314,quadbright,29.0,16,1,505.0358772277832,505.0318241119385,1344,1
315,quadbright,30.0,18,1,692.6980018615723,692.6929950714111,1310,1
316,quadbright,5.0,2,0,98.53196144104004,978.1208038330078,919,1
317,quadbright,6.0,2,1,99.31206703186035,922.3721027374268,1044,1
318,quadbright,7.0,11,1,494.31610107421875,494.3110942840576,1003,1
319,quadbright,8.0,11,1,95.52383422851562,614.3770217895508,1497,1
320,quadbright,9.0,9,1,131.41202926635742,523.7879753112793,1065,1
321,quadbright,10.0,8,1,100.21114349365234,527.388334274292,1030,1
322,quadbright,11.0,2,0,624.7150897979736,624.7129440307617,1221,1
323,quadbright,12.0,8,0,691.8761730194092,691.8718814849854,1100,1
324,quadbright,13.0,8,1,593.7421321868896,593.7399864196777,1070,1
325,quadbright,14.0,8,1,1572.1468925476074,1572.145938873291,1354,1
326,quadbright,15.0,2,0,99.78103637695312,890.7718658447266,1076,1
327,quadbright,16.0,14,1,891.3531303405762,891.3509845733643,866,1
328,quadbright,17.0,11,1,691.6971206665039,691.694974899292,1117,1
329,quadbright,18.0,2,0,804.0421009063721,804.0399551391602,1419,1
330,quadbright,19.0,17,1,615.8740520477295,615.8740520477295,1291,1
331,quadbright,20.0,11,1,1011.3160610198975,1011.315107345581,913,1
332,quadbright,21.0,9,1,495.07784843444824,495.0740337371826,1380,1
333,quadbright,22.0,20,1,725.86989402771,725.8679866790771,850,1
334,quadbright,23.0,12,1,593.0888652801514,593.0869579315186,1334,1
335,quadbright,24.0,9,0,386.3208293914795,386.3201141357422,1492,1
336,quadbright,25.0,11,0,690.2370452880859,690.230131149292,897,1
337,quadbright,26.0,15,1,659.7812175750732,659.7790718078613,1079,1
338,quadbright,27.0,12,1,685.4860782623291,685.4851245880127,1238,1
339,quadbright,28.0,12,1,1010.4172229766846,1010.4162693023682,1341,1
340,quadbright,29.0,16,1,629.2941570281982,629.2910575866699,849,1
341,quadbright,30.0,18,1,692.561149597168,692.5580501556396,1318,1
342,quadbright,5.0,5,1,97.8081226348877,497.49112129211426,834,1
343,quadbright,6.0,2,0,198.3489990234375,716.2737846374512,827,1
344,quadbright,7.0,11,1,198.4541416168213,683.6133003234863,1433,1
345,quadbright,8.0,11,1,593.0371284484863,593.034029006958,1120,1
346,quadbright,9.0,8,1,595.6060886383057,595.604419708252,1379,1
347,quadbright,10.0,6,1,98.98090362548828,826.8139362335205,1433,1
348,quadbright,11.0,5,1,200.06394386291504,725.1017093658447,896,1
349,quadbright,12.0,9,1,739.5739555358887,739.5708560943604,1079,1
350,quadbright,13.0,6,1,393.5129642486572,393.5091495513916,1373,1
351,quadbright,14.0,6,1,199.005126953125,978.1031608581543,1171,1
352,quadbright,15.0,5,1,682.218074798584,682.2168827056885,899,1
353,quadbright,16.0,14,1,197.24583625793457,494.887113571167,1046,1
354,quadbright,17.0,11,0,932.1370124816895,932.1339130401611,1024,1
355,quadbright,18.0,5,1,792.0207977294922,792.0198440551758,1110,1
356,quadbright,19.0,17,1,506.9758892059326,506.9730281829834,1202,1
357,quadbright,20.0,11,0,698.4381675720215,698.4350681304932,994,1
358,quadbright,21.0,9,1,703.294038772583,703.2899856567383,1321,1
359,quadbright,22.0,20,1,493.46375465393066,493.46089363098145,965,1
360,quadbright,23.0,12,1,395.2522277832031,395.2491283416748,812,1
361,quadbright,24.0,11,1,594.9640274047852,594.9587821960449,1025,1
362,quadbright,25.0,12,1,690.3061866760254,690.3033256530762,1053,1
363,quadbright,26.0,15,1,693.4959888458252,693.4909820556641,994,1
364,quadbright,27.0,12,0,992.8061962127686,992.8040504455566,1029,1
365,quadbright,28.0,11,1,692.0440196990967,692.039966583252,941,1
366,quadbright,29.0,15,1,703.8559913635254,703.8509845733643,1238,1
367,quadbright,30.0,17,1,1010.6470584869385,1010.6461048126221,960,1
368,quadbright,5.0,5,1,596.0869789123535,596.0838794708252,901,1
369,quadbright,6.0,5,1,198.34423065185547,593.994140625,972,1
370,quadbright,7.0,9,1,88.19818496704102,483.6292266845703,1390,1
371,quadbright,8.0,9,1,97.78833389282227,590.2693271636963,1247,1
372,quadbright,9.0,8,1,691.7028427124023,691.6987895965576,1432,1
373,quadbright,10.0,6,1,681.9479465484619,681.9462776184082,998,1
374,quadbright,11.0,5,0,790.4891967773438,790.4870510101318,1263,1
375,quadbright,12.0,9,1,493.21603775024414,493.21436882019043,878,1
376,quadbright,13.0,6,0,897.0439434051514,897.0398902893066,920,1
377,quadbright,14.0,6,0,878.730058670044,878.7291049957275,1344,1
378,quadbright,15.0,5,1,595.905065536499,595.9019660949707,1046,1
379,quadbright,16.0,13,1,594.1650867462158,594.1629409790039,1424,1
380,quadbright,17.0,12,1,503.399133682251,503.3903121948242,1003,1
381,quadbright,18.0,5,1,801.7008304595947,801.6970157623291,994,1
382,quadbright,19.0,15,1,393.8939571380615,393.8908576965332,1451,1
383,quadbright,20.0,12,1,198.3630657196045,591.5720462799072,1110,1
384,quadbright,21.0,8,0,792.4890518188477,792.4878597259521,938,1
385,quadbright,22.0,19,1,593.2068824768066,593.2068824768066,1021,1
386,quadbright,23.0,11,0,890.394926071167,890.3937339782715,1049,1
387,quadbright,24.0,11,0,593.4779644012451,593.4741497039795,872,1
388,quadbright,25.0,12,0,496.42133712768555,496.42014503479004,1031,1
389,quadbright,26.0,14,1,595.4349040985107,595.4329967498779,1049,1
390,quadbright,27.0,13,1,502.75588035583496,502.75206565856934,1114,1
391,quadbright,28.0,11,0,592.1180248260498,592.1118259429932,976,1
392,quadbright,29.0,15,1,493.0081367492676,493.00503730773926,1329,1
393,quadbright,30.0,17,0,793.5688495635986,793.5678958892822,904,1
