trial,condition,eccentricity,magnitude,correct,srt_ms,keyboard_rt_ms,pre_change_ms,valid
1,control,5.0,20,1,100.57592391967772,496.2201118469238,847,1
2,control,6.0,20,1,491.9569492340088,491.95384979248047,1226,1
3,control,7.0,20,1,99.62797164916992,395.676851272583,1116,1
4,control,8.0,20,1,98.42586517333984,426.5108108520508,801,1
5,control,9.0,20,1,98.8922119140625,680.842399597168,1193,1
6,control,10.0,20,1,491.6229248046875,491.6212558746338,803,1
7,control,11.0,20,1,405.6978225708008,405.6899547576904,1179,1
8,control,12.0,20,1,505.3591728210449,505.3560733795166,1331,1
9,control,13.0,20,1,427.6480674743652,427.64735221862793,833,1
10,control,14.0,20,1,426.8169403076172,426.8100261688232,1171,1
11,control,15.0,20,0,98.97708892822266,702.5079727172852,861,1
12,control,16.0,20,1,493.51978302001953,493.5171604156494,1318,1
13,control,17.0,20,1,602.064847946167,602.0619869232178,948,1
14,control,18.0,20,1,532.3660373687744,532.3641300201416,1039,1
15,control,19.0,20,1,425.9982109069824,425.9951114654541,1194,1
16,control,20.0,20,1,427.2458553314209,427.243709564209,1367,1
17,control,21.0,20,1,525.9931087493896,525.9912014007568,895,1
18,control,22.0,20,1,721.3881015777588,721.3869094848633,1261,1
19,control,23.0,20,1,494.9488639831543,494.94409561157227,1309,1
20,control,24.0,20,1,393.7191963195801,393.7129974365234,801,1
21,control,25.0,20,1,484.7748279571533,484.7748279571533,1008,1
22,control,26.0,20,1,493.7129020690918,493.7100410461426,1020,1
23,control,27.0,20,1,535.3059768676758,535.3038311004639,1018,1
24,control,28.0,20,1,525.8369445800781,525.8338451385498,1371,1
25,control,29.0,20,1,693.619966506958,693.6161518096924,1310,1
26,control,30.0,20,1,583.2202434539795,583.2183361053467,888,1
27,control,5.0,20,1,99.08604621887208,692.44384765625,1430,1
28,control,6.0,20,1,99.14803504943848,483.05201530456543,866,1
29,control,7.0,20,1,496.37818336486816,496.37603759765625,942,1
30,control,8.0,20,1,405.9169292449951,405.9138298034668,970,1
31,control,9.0,20,1,98.6177921295166,495.1491355895996,1104,1
32,control,10.0,20,1,593.3880805969238,593.3823585510254,1008,1
33,control,11.0,20,1,427.487850189209,427.480697631836,1397,1
34,control,12.0,20,1,98.37532043457033,527.1282196044922,1116,1
35,control,13.0,20,1,911.2420082092284,911.240816116333,836,1
36,control,14.0,20,1,493.9029216766357,493.8969612121582,1100,1
37,control,15.0,23,1,504.03666496276855,504.0309429168701,1118,1
38,control,16.0,20,1,497.0128536224365,497.0118999481201,837,1
39,control,17.0,20,1,424.2138862609863,424.2081642150879,1477,1
40,control,18.0,20,1,428.71999740600586,428.7168979644776,1357,1
41,control,19.0,20,1,387.8381252288818,387.8369331359863,1378,1
42,control,20.0,20,1,397.3391056060791,397.334098815918,961,1
43,control,21.0,20,1,882.3051452636719,882.3041915893555,1458,1
44,control,22.0,20,1,394.9780464172363,394.9732780456543,1054,1
45,control,23.0,20,1,492.32006072998047,492.3148155212402,1285,1
46,control,24.0,20,1,394.8099613189697,394.8020935058594,804,1
47,control,25.0,20,1,484.5051765441895,484.50422286987305,1404,1
48,control,26.0,20,1,692.6000118255615,692.5959587097168,1109,1
49,control,27.0,20,1,385.0381374359131,385.0369453430176,1106,1
50,control,28.0,20,1,493.9751625061035,493.9730167388916,938,1
51,control,29.0,20,1,593.3160781860352,593.3148860931396,1122,1
52,control,30.0,20,1,398.6709117889404,398.669958114624,902,1
53,control,5.0,17,0,393.7389850616455,393.7361240386963,1454,1
54,control,6.0,17,1,98.63901138305664,529.9489498138428,1493,1
55,control,7.0,17,0,197.07512855529785,596.0171222686768,989,1
56,control,8.0,17,1,97.27096557617188,394.5329189300537,1347,1
57,control,9.0,17,1,395.0409889221192,395.0388431549072,888,1
58,control,10.0,17,1,495.269775390625,495.2676296234131,1458,1
59,control,11.0,17,1,494.6291446685791,494.6260452270508,1201,1
60,control,12.0,17,1,595.8399772644043,595.836877822876,1335,1
61,control,13.0,17,1,594.7599411010742,594.7577953338623,1434,1
62,control,14.0,17,1,495.07904052734375,495.0752258300781,852,1
63,control,15.0,23,1,395.54381370544434,395.5421447753906,946,1
64,control,16.0,17,1,592.1008586883545,592.0987129211426,1185,1
65,control,17.0,17,1,525.7399082183838,525.7337093353271,1358,1
66,control,18.0,17,1,527.7011394500732,527.7001857757568,1315,1
67,control,19.0,17,1,493.8461780548096,493.8392639160156,940,1
68,control,20.0,17,1,593.7891006469727,593.7831401824951,1215,1
69,control,21.0,17,1,493.8929080963135,493.8819408416748,1393,1
70,control,22.0,17,1,396.8310356140137,396.82793617248535,1140,1
71,control,23.0,17,1,1024.4531631469729,1024.4479179382324,1076,1
72,control,24.0,17,1,386.5640163421631,386.5630626678467,1356,1
73,control,25.0,17,1,516.8828964233398,516.8819427490234,806,1
74,control,26.0,17,1,494.063138961792,494.0609931945801,1073,1
75,control,27.0,17,0,592.353105545044,592.3459529876709,1265,1
76,control,28.0,17,1,483.7627410888672,483.7617874145508,889,1
77,control,29.0,17,1,493.5932159423828,493.5891628265381,1208,1
78,control,30.0,17,1,527.2760391235352,527.2738933563232,865,1
79,control,5.0,20,1,197.401762008667,624.8867511749268,1484,1
80,control,6.0,17,1,99.992036819458,823.868989944458,1075,1
81,control,7.0,20,1,586.5778923034668,586.5767002105713,1190,1
82,control,8.0,17,1,595.4549312591553,595.4530239105225,1172,1
83,control,9.0,17,1,494.28677558898926,494.28391456604,1393,1
84,control,10.0,17,1,97.81193733215332,492.3326969146729,802,1
85,control,11.0,17,1,197.22700119018555,396.7280387878418,950,1
86,control,12.0,17,1,505.6819915771485,505.68127632141113,1062,1
87,control,13.0,17,1,991.2338256835938,991.2328720092772,833,1
88,control,14.0,17,1,494.3227767944336,494.3170547485352,992,1
89,control,15.0,20,1,404.5000076293945,404.4969081878662,1441,1
90,control,16.0,17,1,197.5419521331787,395.14994621276855,844,1
91,control,17.0,17,1,593.8098430633545,593.8069820404053,1180,1
92,control,18.0,17,1,593.3749675750732,593.3728218078613,1234,1
93,control,19.0,17,1,492.527961730957,492.5220012664795,1482,1
94,control,20.0,17,1,490.7810688018799,490.77820777893066,1018,1
95,control,21.0,17,1,98.15597534179688,394.00386810302734,945,1
96,control,22.0,17,1,495.4550266265869,495.452880859375,827,1
97,control,23.0,17,1,484.3740463256836,484.3721389770508,1456,1
98,control,24.0,17,1,99.34806823730467,727.4291515350342,1132,1
99,control,25.0,17,1,426.07903480529785,426.07688903808594,941,1
100,control,26.0,17,1,328.01294326782227,328.01103591918945,1478,1
101,control,27.0,20,1,524.8570442199707,524.8541831970215,1250,1
102,control,28.0,17,0,1804.074048995972,1804.072856903076,1070,1
103,control,29.0,17,1,591.7282104492188,591.717004776001,1264,1
104,control,30.0,17,0,911.5071296691896,911.505937576294,800,1
105,control,5.0,20,1,297.7588176727295,428.6730289459229,935,1
106,control,6.0,14,1,98.3738899230957,525.8960723876953,1362,1
107,control,7.0,20,1,199.50294494628903,688.5528564453125,987,1
108,control,8.0,14,1,594.620943069458,594.6190357208252,1216,1
109,control,9.0,14,1,593.6799049377441,593.6770439147949,1303,1
110,control,10.0,14,1,197.79276847839355,591.3259983062744,1230,1
111,control,11.0,14,1,494.3370819091797,494.33326721191406,1302,1
112,control,12.0,14,1,593.3530330657959,593.3430194854736,1239,1
113,control,13.0,14,1,988.3389472961426,988.3370399475098,1491,1
114,control,14.0,14,1,493.84498596191406,493.840217590332,1299,1
115,control,15.0,20,1,789.7610664367676,789.7520065307617,837,1
116,control,16.0,14,1,593.430757522583,593.4278964996338,1478,1
117,control,17.0,14,1,592.5247669219971,592.5147533416748,1105,1
118,control,18.0,14,1,594.1162109375,594.1112041473389,1018,1
119,control,19.0,14,1,494.614839553833,494.6129322052002,1446,1
120,control,20.0,14,1,494.35997009277344,494.3578243255615,1006,1
121,control,21.0,14,1,494.1279888153076,494.121789932251,1268,1
122,control,22.0,14,1,427.55985260009766,427.5579452514648,841,1
123,control,23.0,14,1,327.76379585266113,327.7578353881836,1158,1
124,control,24.0,14,1,493.3810234069824,493.3788776397705,922,1
125,control,25.0,14,1,591.2339687347412,591.231107711792,1025,1
126,control,26.0,14,1,393.643856048584,393.63980293273926,1140,1
127,control,27.0,20,1,593.3160781860352,593.3139324188232,1245,1
128,control,28.0,20,0,593.7058925628662,593.7008857727051,1167,1
129,control,29.0,14,1,593.5900211334229,593.5847759246826,1471,1
130,control,30.0,20,1,989.722728729248,989.720106124878,830,1
131,control,5.0,18,1,99.35188293457033,493.79491806030273,1211,1
132,control,6.0,14,1,98.25778007507324,493.3040142059326,1251,1
133,control,7.0,18,1,98.01077842712402,394.3638801574707,1086,1
134,control,8.0,14,1,197.80611991882324,592.9439067840576,1188,1
135,control,9.0,14,1,594.1150188446045,594.1119194030762,1132,1
136,control,10.0,14,1,99.52878952026369,493.5917854309082,854,1
137,control,11.0,14,1,594.2180156707764,594.2111015319824,1249,1
138,control,12.0,14,1,593.6250686645508,593.6200618743896,995,1
139,control,13.0,14,1,493.3638572692871,493.35575103759766,1259,1
140,control,14.0,14,1,493.8931465148926,493.89004707336426,811,1
141,control,15.0,17,1,494.3370819091797,494.3280220031738,1115,1
142,control,16.0,14,1,625.1640319824219,625.1587867736816,868,1
143,control,17.0,14,0,624.6399879455566,624.6371269226074,1445,1
144,control,18.0,14,1,394.9100971221924,394.9031829833984,1028,1
145,control,19.0,14,1,426.8069267272949,426.8028736114502,956,1
146,control,20.0,14,0,395.0610160827637,395.0550556182861,1240,1
147,control,21.0,14,1,693.0618286132812,693.0601596832275,1173,1
148,control,22.0,14,1,526.8442630767822,526.8421173095703,1057,1
149,control,23.0,14,1,525.9850025177002,525.9828567504883,1368,1
150,control,24.0,14,1,725.4841327667236,725.4788875579834,824,1
151,control,25.0,14,1,525.6929397583008,525.6898403167725,1348,1
152,control,26.0,14,1,692.6941871643066,692.6920413970947,1296,1
153,control,27.0,18,1,494.359016418457,494.3552017211914,1158,1
154,control,28.0,23,1,394.0911293029785,394.0873146057129,1303,1
155,control,29.0,14,1,527.5931358337402,527.5890827178955,1425,1
156,control,30.0,20,1,398.1602191925049,398.15711975097656,1472,1
157,control,5.0,18,1,529.1719436645508,529.170036315918,836,1
158,control,6.0,11,1,394.8547840118408,394.8509693145752,1402,1
159,control,7.0,18,1,527.094841003418,527.0919799804688,984,1
160,control,8.0,11,1,526.1499881744385,526.1430740356445,1320,1
161,control,9.0,11,1,99.00617599487305,493.8421249389648,845,1
162,control,10.0,11,1,524.7039794921875,524.6977806091309,1021,1
163,control,11.0,11,1,329.3602466583252,329.3571472167969,1343,1
164,control,12.0,11,1,525.4158973693848,525.4137516021729,1414,1
165,control,13.0,11,1,492.4249649047852,492.4149513244629,1311,1
166,control,14.0,11,1,496.2620735168457,496.2611198425293,1153,1
167,control,15.0,17,1,987.3950481414796,987.3902797698976,1437,1
168,control,16.0,11,1,496.25706672668457,496.25515937805176,844,1
169,control,17.0,17,1,492.3219680786133,492.32006072998047,934,1
170,control,18.0,11,0,294.83699798583984,294.8288917541504,1320,1
171,control,19.0,11,1,493.7729835510254,493.7620162963867,1419,1
172,control,20.0,17,1,495.4268932342529,495.41187286376953,862,1
173,control,21.0,11,1,989.8676872253418,989.8648262023926,1142,1
174,control,22.0,11,1,493.0827617645264,493.08204650878906,887,1
175,control,23.0,11,1,494.7216510772705,494.71068382263184,1187,1
176,control,24.0,11,1,492.293119430542,492.2909736633301,1316,1
177,control,25.0,11,1,495.2759742736816,495.2740669250488,1226,1
178,control,26.0,11,1,525.6080627441406,525.6021022796631,835,1
179,control,27.0,18,1,427.60300636291504,427.5989532470703,1415,1
180,control,28.0,23,1,593.5752391815186,593.5730934143066,809,1
181,control,29.0,11,1,593.7850475311279,593.7798023223877,1279,1
182,control,30.0,18,1,790.6210422515869,790.6181812286377,1238,1
183,control,5.0,17,1,98.58274459838869,791.3496494293213,1377,1
184,control,6.0,11,1,494.6136474609375,494.6119785308838,1336,1
185,control,7.0,17,1,98.66714477539062,494.08602714538574,1125,1
186,control,8.0,11,1,98.63114356994627,494.5430755615234,1339,1
187,control,9.0,11,1,493.8769340515137,493.87478828430176,1080,1
188,control,10.0,11,1,296.71311378479004,592.8359031677246,1264,1
189,control,11.0,11,1,200.2098560333252,594.2678451538086,1227,1
190,control,12.0,11,1,593.4970378875732,593.4948921203613,866,1
191,control,13.0,11,1,493.858814239502,493.8528537750244,1142,1
192,control,14.0,11,1,493.182897567749,493.1790828704834,1275,1
193,control,15.0,14,1,493.746280670166,493.7410354614258,973,1
194,control,16.0,11,1,494.89688873291016,494.89474296569824,981,1
195,control,17.0,17,1,492.844820022583,492.8326606750488,1496,1
196,control,18.0,14,1,1020.6100940704346,1020.6079483032228,1348,1
197,control,19.0,11,1,427.5081157684326,427.5040626525879,1051,1
198,control,20.0,17,1,626.6961097717285,626.6942024230957,984,1
199,control,21.0,11,1,593.742847442627,593.7399864196777,1086,1
200,control,22.0,11,1,891.6351795196533,891.6330337524414,1294,1
201,control,23.0,11,1,494.0688610076904,494.0629005432129,1060,1
202,control,24.0,11,1,494.6300983428955,494.6260452270508,1259,1
203,control,25.0,11,1,893.4309482574463,893.427848815918,811,1
204,control,26.0,11,1,493.5040473937988,493.5002326965332,1359,1
205,control,27.0,17,1,491.7020797729492,491.7008876800537,829,1
206,control,28.0,21,1,394.7687149047852,394.76704597473145,1117,1
207,control,29.0,11,1,889.9991512298584,889.9979591369629,1324,1
208,control,30.0,18,1,494.2350387573242,494.2331314086914,1195,1
209,control,5.0,17,1,98.42705726623537,493.293046951294,1483,1
210,control,6.0,8,1,96.7719554901123,494.3151473999024,927,1
211,control,7.0,17,1,99.12514686584473,395.2980041503906,1190,1
212,control,8.0,8,1,96.82202339172365,493.0639266967773,1377,1
213,control,9.0,8,1,494.5909976959229,494.5857524871826,1321,1
214,control,10.0,8,1,495.657205581665,495.6519603729248,1070,0
215,control,10.0,8,1,530.0600528717041,530.0569534301758,952,1
216,control,11.0,8,1,530.3769111633301,530.3738117218018,1080,1
217,control,12.0,8,1,596.6000556945801,596.5962409973145,929,1
218,control,13.0,8,0,593.9650535583496,593.9610004425049,1019,1
219,control,14.0,8,1,493.9379692077637,493.93582344055176,1197,1
220,control,15.0,14,1,691.5521621704102,691.5500164031982,1135,1
221,control,16.0,8,1,396.0330486297608,396.03137969970703,917,1
222,control,17.0,15,1,394.73509788513184,394.7329521179199,1041,1
223,control,18.0,14,1,394.9520587921143,394.9458599090576,913,1
224,control,19.0,8,1,398.8628387451172,398.8602161407471,1419,1
225,control,20.0,15,1,623.8992214202881,623.892068862915,841,1
226,control,21.0,8,0,497.1821308135986,497.1799850463867,1343,1
227,control,22.0,8,1,593.3370590209961,593.3318138122559,1442,1
228,control,23.0,8,1,493.7479496002197,493.7448501586914,1396,1
229,control,24.0,8,1,426.96380615234375,426.9580841064453,1152,1
230,control,25.0,8,1,525.8631706237793,525.8588790893555,1470,1
231,control,26.0,8,1,691.7679309844971,691.763162612915,904,1
232,control,27.0,17,1,492.6950931549072,492.6919937133789,1465,1
233,control,28.0,21,1,393.8171863555908,393.80931854248047,1454,1
234,control,29.0,8,0,493.3502674102783,493.3450222015381,1003,1
235,control,30.0,17,1,494.65012550354,494.6460723876953,1225,1
236,control,5.0,15,0,198.1618404388428,296.11873626708984,1183,1
237,control,6.0,8,1,98.79112243652344,593.8260555267334,1064,1
238,control,7.0,15,1,494.5831298828125,494.5800304412842,1338,1
239,control,8.0,8,1,98.6638069152832,1020.91383934021,1232,1
240,control,9.0,8,1,625.6201267242432,625.6179809570312,1212,1
241,control,10.0,8,1,131.14476203918457,526.068925857544,1277,1
242,control,11.0,8,1,394.9019908905029,394.8972225189209,1497,1
243,control,12.0,8,1,492.5839900970459,492.5811290740967,1453,1
244,control,13.0,11,1,98.6313819885254,394.0300941467285,1415,1
245,control,14.0,8,1,497.2407817840576,497.2381591796875,948,1
246,control,15.0,11,1,723.4160900115967,723.4110832214355,1179,1
247,control,16.0,8,1,97.81098365783691,1086.4408016204834,800,1
248,control,17.0,15,1,593.6238765716553,593.6191082000732,1500,1
249,control,18.0,12,1,494.1680431365967,494.1661357879639,816,1
250,control,19.0,8,1,592.383861541748,592.3807621002197,1326,1
251,control,20.0,15,1,494.0028190612793,493.999719619751,1282,1
252,control,21.0,11,1,495.56922912597656,495.5670833587647,1120,1
253,control,22.0,8,1,494.1740036010742,494.1709041595459,1020,1
254,control,23.0,8,1,789.7577285766602,789.7558212280273,1493,1
255,control,24.0,8,1,491.5471076965332,491.5449619293213,1398,1
256,control,25.0,8,1,493.710994720459,493.70718002319336,1428,1
257,control,26.0,8,0,790.3251647949219,790.32301902771,1412,1
258,control,27.0,15,1,989.8531436920166,989.8512363433838,1201,1
259,control,28.0,20,1,889.4412517547607,889.4343376159668,1307,1
260,control,29.0,11,1,394.0510749816895,394.0489292144776,1390,1
261,control,30.0,17,1,723.0141162872314,723.0110168457031,1494,1
262,control,5.0,17,1,426.7039299011231,426.7010688781738,1203,1
263,control,6.0,5,1,99.26080703735352,427.7501106262207,1254,1
264,control,7.0,15,1,96.53615951538086,394.9382305145264,1454,1
265,control,8.0,5,1,98.20008277893066,394.9260711669922,1476,1
266,control,9.0,5,1,397.2301483154297,494.7388172149658,1450,1
267,control,10.0,5,1,296.2169647216797,593.5468673706055,1324,1
268,control,11.0,5,1,99.1506576538086,394.64282989501953,1266,1
269,control,12.0,5,1,592.7801132202148,592.7784442901611,1341,1
270,control,13.0,11,1,493.178129196167,493.170976638794,1252,1
271,control,14.0,5,1,889.8768424987793,889.8699283599854,1347,1
272,control,15.0,11,1,594.0980911254883,594.0921306610107,1277,1
273,control,16.0,5,1,496.72579765319824,496.7217445373535,1392,1
274,control,17.0,14,1,988.7497425079346,988.7490272521972,816,1
275,control,18.0,12,1,494.2011833190918,494.1971302032471,1410,1
276,control,19.0,5,1,493.8712120056152,493.86119842529297,1388,1
277,control,20.0,14,1,493.7191009521485,493.70718002319336,1157,1
278,control,21.0,11,1,593.839168548584,593.8360691070557,1017,1
279,control,22.0,5,1,791.5439605712891,791.5420532226562,1109,1
280,control,23.0,5,1,889.3651962280273,889.362096786499,822,1
281,control,24.0,5,0,791.2561893463135,791.2521362304688,983,1
282,control,25.0,5,1,689.9027824401855,689.8989677429199,1488,1
283,control,26.0,11,1,591.3279056549072,591.3262367248535,1195,1
284,control,27.0,15,1,594.0830707550049,594.0799713134766,1108,1
285,control,28.0,20,1,494.0459728240967,494.04311180114746,925,1
286,control,29.0,11,1,493.7551021575928,493.75200271606445,942,1
287,control,30.0,15,1,492.0890331268311,492.0840263366699,1216,1
288,control,5.0,17,1,99.33805465698242,889.829158782959,1477,1
289,control,6.0,5,1,98.85001182556152,394.9539661407471,860,1
290,control,7.0,14,1,98.24395179748537,493.2971000671387,1083,1
291,control,8.0,5,1,490.4477596282959,490.4458522796631,1191,1
292,control,9.0,5,1,98.9677906036377,495.5599308013916,890,1
293,control,10.0,5,1,493.5481548309326,493.5460090637207,1478,1
294,control,11.0,5,0,429.1393756866455,1122.7750778198242,982,1
295,control,12.0,5,1,496.4921474456787,496.4892864227295,832,1
296,control,13.0,9,1,493.69096755981445,493.69096755981445,926,1
297,control,14.0,5,1,101.01008415222168,496.49596214294434,936,1
298,control,15.0,8,1,593.8129425048828,593.8098430633545,1269,1
299,control,16.0,5,1,394.2079544067383,394.20485496521,1293,1
300,control,17.0,14,1,493.6411380767822,493.6368465423584,1163,1
301,control,18.0,11,1,493.3021068572998,493.2971000671387,1268,1
302,control,19.0,5,1,593.170166015625,593.163013458252,893,1
303,control,20.0,14,1,493.6940670013428,493.6890602111816,1084,1
304,control,21.0,9,1,593.0261611938477,593.0192470550537,1201,1
305,control,22.0,5,1,592.6032066345215,592.5991535186768,1187,1
306,control,23.0,5,1,623.9979267120361,623.9891052246094,1422,1
307,control,24.0,8,1,1120.3720569610596,1120.3622817993164,1414,1
308,control,25.0,5,1,492.5808906555176,492.5758838653565,1207,1
309,control,26.0,11,1,592.1919345855713,592.1900272369385,1206,1
310,control,27.0,14,1,494.7531223297119,494.7500228881836,1186,1
311,control,28.0,18,1,593.2250022888184,593.2209491729736,831,1
312,control,29.0,9,1,791.7110919952393,791.7039394378662,1455,1
313,control,30.0,15,1,493.5770034790039,493.574857711792,1309,1
314,control,5.0,16,1,493.6802387237549,493.67809295654297,1373,1
315,control,6.0,2,1,592.9911136627197,592.9841995239258,1477,1
316,control,7.0,14,0,199.41306114196777,596.5118408203125,861,1
317,control,8.0,2,0,101.35078430175781,824.2487907409668,1141,1
318,control,9.0,2,0,97.57113456726074,1019.3510055541992,878,1
319,control,10.0,2,1,725.0759601593018,725.0721454620361,938,1
320,control,11.0,8,1,889.4288539886475,889.4269466400146,1307,1
321,control,12.0,2,1,791.7029857635498,791.6998863220215,1124,1
322,control,13.0,9,1,493.7548637390137,493.75200271606445,1314,1
323,control,14.0,2,0,1416.1269664764404,1416.1198139190674,1247,1
324,control,15.0,8,1,495.54920196533203,495.5401420593262,1428,1
325,control,16.0,2,1,889.650821685791,889.6470069885254,831,1
326,control,17.0,12,1,692.1401023864746,692.1353340148926,810,1
327,control,18.0,11,1,493.4360980987549,493.43204498291016,1101,1
328,control,19.0,2,0,791.8059825897217,791.8047904968262,1187,1
329,control,20.0,12,1,594.027042388916,594.0148830413818,1345,1
330,control,21.0,9,1,520.7180976867676,520.7180976867676,880,1
331,control,22.0,2,0,724.0171432495117,724.0040302276611,996,1
332,control,23.0,2,0,624.0279674530029,624.025821685791,1402,1
333,control,24.0,8,1,623.7969398498535,623.7907409667969,1157,1
334,control,25.0,2,1,725.2349853515625,725.2299785614014,1263,1
335,control,26.0,9,0,625.4489421844482,625.4479885101318,1498,1
336,control,27.0,14,1,592.4711227416992,592.4649238586426,1176,1
337,control,28.0,18,1,493.9589500427246,493.95298957824707,1457,1
338,control,29.0,9,1,789.8030281066895,789.7999286651611,1039,1
339,control,30.0,14,0,791.6378974914551,791.6359901428223,1402,1
340,control,5.0,16,1,99.86615180969238,592.9372310638428,1100,1
341,control,6.0,2,1,98.28829765319824,1118.8139915466309,1364,1
342,control,7.0,15,1,128.8449764251709,722.7139472961426,1389,1
343,control,8.0,5,1,197.75700569152832,691.3871765136719,1226,1
344,control,9.0,5,1,493.3910369873047,493.3810234069824,1439,1
345,control,10.0,2,0,1286.1099243164062,1286.1030101776123,1055,1
346,control,11.0,8,1,98.30594062805176,694.4270133972168,1228,1
347,control,12.0,2,1,892.4038410186768,892.3990726470947,968,1
348,control,13.0,9,1,494.42291259765625,494.41981315612793,1273,1
349,control,14.0,5,1,887.5210285186768,887.5148296356201,1001,1
350,control,15.0,8,1,691.1089420318604,691.1051273345947,1341,1
351,control,16.0,2,1,889.7390365600586,889.7311687469482,816,1
352,control,17.0,12,1,493.59798431396484,493.5939311981201,1086,1
353,control,18.0,11,1,495.60999870300293,495.6068992614746,802,1
354,control,19.0,5,1,493.1480884552002,493.14308166503906,1165,1
355,control,20.0,12,1,494.30394172668457,494.30012702941895,1000,1
356,control,21.0,9,1,822.7958679199219,822.7932453155518,929,1
357,control,22.0,5,1,625.4448890686035,625.4432201385498,1362,1
358,control,23.0,5,1,1020.5180644989014,1020.514965057373,833,1
359,control,24.0,8,1,494.60792541503906,494.60601806640625,1054,1
360,control,25.0,2,1,692.2388076782227,692.2357082366943,1494,1
361,control,26.0,12,1,690.5279159545898,690.5231475830078,1427,1
362,control,27.0,14,1,889.3451690673828,889.340877532959,1302,1
363,control,28.0,18,1,593.376874923706,593.3718681335449,914,1
364,control,29.0,9,1,493.5128688812256,493.50690841674805,1179,1
365,control,30.0,17,1,591.4039611816406,591.3951396942139,1255,1
366,control,5.0,16,1,99.65896606445312,494.39287185668945,1286,1
367,control,6.0,2,0,98.87313842773438,1021.1739540100098,1108,1
368,control,7.0,15,1,101.35674476623535,496.20580673217773,989,1
369,control,8.0,5,1,99.93290901184082,495.39685249328613,1094,1
370,control,9.0,5,1,494.52710151672363,494.520902633667,1453,1
371,control,10.0,5,1,227.73003578186035,526.7767906188965,1408,1
372,control,11.0,5,1,626.1720657348633,626.1622905731201,968,1
373,control,12.0,1,1,889.9950981140137,889.988899230957,972,1
374,control,13.0,6,1,591.202974319458,591.195821762085,1054,1
375,control,14.0,5,1,691.9169425964355,691.910982131958,1234,1
376,control,15.0,5,1,493.4430122375488,493.4408664703369,1294,1
377,control,16.0,1,1,594.735860824585,594.7341918945312,1386,1
378,control,17.0,9,1,1089.0178680419922,1089.0130996704102,1353,1
379,control,18.0,8,1,589.2288684844971,589.224100112915,1228,1
380,control,19.0,5,1,694.0820217132568,694.0798759460449,1275,1
381,control,20.0,9,1,689.2211437225342,689.2130374908447,1264,1
382,control,21.0,6,1,589.439868927002,589.4379615783691,1354,1
383,control,22.0,5,0,791.6109561920166,791.6069030761719,1242,1
384,control,23.0,5,1,796.3697910308838,796.3659763336182,1256,1
385,control,24.0,5,0,597.7420806884766,597.7389812469482,1235,1
386,control,25.0,1,0,690.7389163970947,690.7351016998291,1187,1
387,control,26.0,12,1,691.8168067932129,691.8127536773682,1340,1
388,control,27.0,11,1,691.3471221923828,691.3449764251709,1417,1
389,control,28.0,15,1,689.6710395812988,689.6669864654541,860,1
390,control,29.0,6,1,590.6012058258057,590.5919075012207,974,1
391,control,30.0,17,1,688.579797744751,688.572883605957,1273,1
1,quadbright,5.0,20,1,96.29368782043456,526.3307094573975,1297,1
2,quadbright,6.0,20,1,592.7579402923584,592.7526950836182,1266,1
3,quadbright,7.0,20,1,1020.4300880432128,1020.4250812530518,936,1
4,quadbright,8.0,20,1,98.42276573181152,426.37085914611816,1095,1
5,quadbright,9.0,20,1,501.0800361633301,501.07693672180176,1141,1
6,quadbright,10.0,20,1,626.4858245849609,626.4848709106445,892,1
7,quadbright,11.0,20,1,426.7311096191406,426.7289638519287,1145,1
8,quadbright,12.0,20,1,494.0674304962158,494.05908584594727,1059,1
9,quadbright,13.0,20,1,99.65014457702635,427.1121025085449,1117,1
10,quadbright,14.0,20,1,493.84403228759766,493.8359260559082,1493,1
11,quadbright,15.0,20,1,628.4728050231934,628.4689903259277,1197,1
12,quadbright,16.0,20,1,624.6740818023682,624.6719360351562,1250,1
13,quadbright,17.0,20,1,614.4261360168457,614.4249439239502,1338,1
14,quadbright,18.0,20,1,525.6760120391846,525.6741046905518,1184,1
15,quadbright,19.0,20,1,723.5419750213623,723.5391139984131,1119,1
16,quadbright,20.0,20,1,288.10906410217285,419.356107711792,1381,1
17,quadbright,21.0,20,1,526.8290042877197,526.8220901489258,1452,1
18,quadbright,22.0,20,1,1009.1259479522704,1009.1259479522704,909,1
19,quadbright,23.0,20,1,813.3761882781982,813.3749961853027,1120,1
20,quadbright,24.0,20,1,691.7750835418701,691.7729377746582,1378,1
21,quadbright,25.0,20,1,394.97900009155273,394.9780464172363,1197,1
22,quadbright,26.0,20,1,505.051851272583,505.0439834594727,1066,1
23,quadbright,27.0,20,1,505.15198707580566,505.14984130859375,1465,1
24,quadbright,28.0,20,0,889.613151550293,889.6100521087646,1103,1
25,quadbright,29.0,20,1,623.1522560119629,623.1491565704346,882,1
26,quadbright,30.0,20,1,593.9090251922607,593.9047336578369,1162,1
27,quadbright,5.0,20,1,96.67205810546876,1019.1261768341064,1465,1
28,quadbright,6.0,20,1,99.23791885375977,416.1300659179688,949,1
29,quadbright,7.0,20,1,99.18689727783205,592.6542282104492,959,1
30,quadbright,8.0,20,1,99.61223602294922,494.5690631866455,1098,1
31,quadbright,9.0,20,1,199.9959945678711,496.45304679870605,1359,1
32,quadbright,10.0,20,1,494.5888519287109,494.5831298828125,921,1
33,quadbright,11.0,20,1,593.7869548797607,593.7819480895996,1329,1
34,quadbright,12.0,20,1,293.499231338501,583.0819606781006,1042,1
35,quadbright,13.0,20,1,922.7309226989746,922.7292537689208,1493,1
36,quadbright,14.0,20,1,424.2887496948242,424.2837429046631,1141,1
37,quadbright,15.0,20,1,496.2129592895508,496.211051940918,1044,1
38,quadbright,16.0,20,1,398.317813873291,398.3139991760254,1137,1
39,quadbright,17.0,20,1,492.5968647003174,492.59400367736816,822,1
40,quadbright,18.0,20,1,601.1447906494141,601.1378765106201,1306,1
41,quadbright,19.0,20,1,395.02692222595215,395.0178623199463,1213,1
42,quadbright,20.0,20,1,495.6119060516357,495.6099987030029,1170,1
43,quadbright,21.0,20,1,594.7871208190918,594.7790145874023,874,1
44,quadbright,22.0,20,1,494.9460029602051,494.9450492858887,1484,1
45,quadbright,23.0,20,1,485.3940010070801,485.3930473327637,1020,1
46,quadbright,24.0,20,0,782.977819442749,782.9771041870117,859,1
47,quadbright,25.0,20,1,406.7869186401367,406.7850112915039,1028,1
48,quadbright,26.0,20,1,492.4437999725342,492.4397468566895,1144,1
49,quadbright,27.0,20,1,492.7611351013184,492.7558898925781,996,1
50,quadbright,28.0,23,0,483.659029006958,483.6583137512207,1369,1
51,quadbright,29.0,20,1,900.6710052490234,900.6650447845459,835,1
52,quadbright,30.0,20,0,791.1093235015869,791.1050319671631,1344,1
53,quadbright,5.0,17,1,197.13497161865237,582.3249816894531,1219,1
54,quadbright,6.0,17,1,98.25515747070312,394.19007301330566,1372,1
55,quadbright,7.0,17,1,397.5369930267334,889.6980285644531,805,1
56,quadbright,8.0,17,1,493.2432174682617,493.23320388793945,1354,1
57,quadbright,9.0,17,1,386.3711357116699,386.3701820373535,1282,1
58,quadbright,10.0,17,1,397.8350162506104,890.9571170806885,1298,1
59,quadbright,11.0,17,1,396.0258960723877,396.0251808166504,817,1
60,quadbright,12.0,17,1,393.8510417938232,393.8460350036621,931,1
61,quadbright,13.0,17,1,504.4379234313965,504.4362545013428,851,1
62,quadbright,14.0,17,1,494.0822124481201,494.0791130065918,985,1
63,quadbright,15.0,17,1,493.4127330780029,493.4086799621582,1191,1
64,quadbright,16.0,17,1,406.5227508544922,406.51702880859375,839,1
65,quadbright,17.0,17,1,404.62279319763184,404.6201705932617,1146,1
66,quadbright,18.0,17,1,726.262092590332,726.25732421875,826,1
67,quadbright,19.0,17,1,497.3952770233154,497.3912239074707,1385,1
68,quadbright,20.0,17,1,494.1487312316895,494.1458702087402,1315,1
69,quadbright,21.0,17,1,495.15700340271,495.1541423797608,1204,1
70,quadbright,22.0,17,1,396.1188793182373,396.1169719696045,1250,1
71,quadbright,23.0,17,1,493.9718246459961,493.96705627441406,1456,1
72,quadbright,24.0,23,1,332.4599266052246,332.4580192565918,1137,1
73,quadbright,25.0,17,1,604.7873497009277,604.7821044921875,1176,1
74,quadbright,26.0,17,1,592.6692485809326,592.6618576049805,1227,1
75,quadbright,27.0,17,1,835.3939056396484,835.3919982910156,1140,1
76,quadbright,28.0,26,1,394.6268558502197,394.6249485015869,848,1
77,quadbright,29.0,17,1,394.4790363311768,394.4699764251709,933,1
78,quadbright,30.0,23,1,493.2851791381836,493.2830333709717,1030,1
79,quadbright,5.0,17,1,99.6558666229248,405.89284896850586,969,1
80,quadbright,6.0,17,1,100.4021167755127,395.4920768737793,1184,1
81,quadbright,7.0,17,1,132.28201866149902,527.6069641113281,1263,1
82,quadbright,8.0,17,0,733.8461875915527,733.8402271270752,801,1
83,quadbright,9.0,17,1,502.7270317077637,502.72488594055176,1002,1
84,quadbright,10.0,17,1,494.5499897003174,494.5459365844727,1327,1
85,quadbright,11.0,17,1,385.18762588500977,385.18667221069336,1007,1
86,quadbright,12.0,17,1,494.6680068969727,494.66395378112793,806,1
87,quadbright,13.0,17,1,593.3029651641846,593.2979583740234,868,1
88,quadbright,14.0,17,1,402.9560089111328,402.9500484466553,1263,1
89,quadbright,15.0,17,1,395.880937576294,395.8799839019776,1196,1
90,quadbright,16.0,17,1,592.5159454345703,592.5099849700928,864,1
91,quadbright,17.0,17,1,526.0677337646484,526.0658264160156,834,1
92,quadbright,18.0,17,1,631.3700675964355,631.3679218292236,1292,1
93,quadbright,19.0,17,1,925.4662990570068,925.4601001739502,1002,1
94,quadbright,20.0,17,1,428.4601211547852,428.4591674804688,1415,1
95,quadbright,21.0,17,1,494.2450523376465,494.24004554748535,1088,1
96,quadbright,22.0,17,1,491.32609367370605,491.3198947906494,1247,1
97,quadbright,23.0,17,1,592.0200347900391,592.0150279998779,919,1
98,quadbright,24.0,23,1,493.6838150024414,493.6797618865967,1044,1
99,quadbright,25.0,17,1,394.4849967956543,394.4780826568604,1455,1
100,quadbright,26.0,17,1,493.6530590057373,493.6411380767822,1279,1
101,quadbright,27.0,17,1,493.459939956665,493.4530258178711,1475,1
102,quadbright,28.0,26,1,593.4751033782959,593.4720039367676,1209,1
103,quadbright,29.0,17,1,593.7480926513672,593.7459468841553,1034,1
104,quadbright,30.0,23,1,493.4871196746826,493.4799671173096,1365,1
105,quadbright,5.0,14,1,98.4656810760498,889.2478942871094,836,1
106,quadbright,6.0,14,1,493.4532642364502,493.4501647949219,1272,1
107,quadbright,7.0,14,0,198.20380210876465,691.4408206939697,1064,1
108,quadbright,8.0,20,1,593.7938690185547,593.7900543212891,1310,1
109,quadbright,9.0,14,1,492.8739070892334,492.86699295043945,1315,1
110,quadbright,10.0,14,1,493.7589168548584,493.75391006469727,1314,1
111,quadbright,11.0,14,1,989.7830486297609,989.7787570953368,996,1
112,quadbright,12.0,14,1,395.92790603637695,395.9231376647949,1337,1
113,quadbright,13.0,14,1,394.3910598754883,394.3870067596436,914,1
114,quadbright,14.0,14,1,595.2727794647217,595.2708721160889,1174,1
115,quadbright,15.0,14,1,593.696117401123,593.6939716339111,976,1
116,quadbright,16.0,14,1,593.4832096099854,593.4810638427734,1284,1
117,quadbright,17.0,14,1,394.9010372161865,394.892930984497,1122,1
118,quadbright,18.0,14,1,492.71512031555176,492.7089214324951,1433,1
119,quadbright,19.0,14,1,395.3831195831299,395.37715911865234,1332,1
120,quadbright,20.0,14,0,792.9530143737793,792.9489612579346,1137,1
121,quadbright,21.0,14,0,593.3041572570801,593.3001041412354,1173,1
122,quadbright,22.0,14,1,596.2860584259033,596.2841510772705,1256,1
123,quadbright,23.0,14,1,625.2768039703369,625.2717971801758,1072,1
124,quadbright,24.0,21,1,624.9110698699951,624.9048709869385,1165,1
125,quadbright,25.0,14,1,394.8402404785156,394.8361873626709,866,1
126,quadbright,26.0,14,0,1020.3859806060792,1020.376682281494,1462,1
127,quadbright,27.0,14,1,493.4573173522949,493.4511184692383,1327,1
128,quadbright,28.0,23,1,626.244068145752,626.2388229370117,1126,1
129,quadbright,29.0,14,1,394.89102363586426,394.8850631713867,1295,1
130,quadbright,30.0,21,0,923.0520725250244,923.0477809906006,886,1
131,quadbright,5.0,14,1,98.96397590637208,395.5390453338623,1410,1
132,quadbright,6.0,14,1,99.46703910827635,530.5771827697754,833,1
133,quadbright,7.0,17,1,198.26507568359372,493.474006652832,1169,1
134,quadbright,8.0,20,1,230.0200462341309,625.5490779876709,1105,1
135,quadbright,9.0,14,1,100.01301765441896,727.8711795806885,1390,1
136,quadbright,10.0,14,1,499.4637966156006,499.4628429412842,1443,1
137,quadbright,11.0,14,1,494.7199821472168,494.71402168273926,1030,1
138,quadbright,12.0,14,1,592.2598838806152,592.2529697418213,1497,1
139,quadbright,13.0,14,1,395.5731391906738,395.5693244934082,1377,1
140,quadbright,14.0,14,1,526.16286277771,526.1600017547607,1332,1
141,quadbright,15.0,14,1,398.6418247222901,398.6387252807617,1323,1
142,quadbright,16.0,14,1,525.4530906677246,525.4487991333008,805,1
143,quadbright,17.0,14,1,526.18408203125,526.1812210083008,1192,1
144,quadbright,18.0,14,1,728.722095489502,728.7192344665527,1469,1
145,quadbright,19.0,14,1,492.5119876861572,492.5098419189453,1431,1
146,quadbright,20.0,17,1,593.5449600219727,593.5409069061279,1200,1
147,quadbright,21.0,17,1,495.06616592407227,495.06115913391113,1206,1
148,quadbright,22.0,14,1,592.4630165100098,592.4587249755859,1259,1
149,quadbright,23.0,14,1,597.3021984100342,597.2990989685059,906,1
150,quadbright,24.0,21,1,494.36497688293457,494.3602085113525,1224,1
151,quadbright,25.0,14,1,493.2610988616944,493.2591915130615,829,1
152,quadbright,26.0,17,1,527.2178649902344,527.2119045257568,867,1
153,quadbright,27.0,14,1,494.2431449890137,494.2362308502197,803,1
154,quadbright,28.0,23,0,395.63703536987305,395.6329822540283,1488,1
155,quadbright,29.0,14,1,494.0521717071533,494.0478801727295,1244,1
156,quadbright,30.0,23,1,494.0030574798584,493.99590492248535,1109,1
157,quadbright,5.0,11,1,197.98922538757324,526.2141227722168,1329,1
158,quadbright,6.0,11,1,395.8749771118164,395.8699703216553,933,1
159,quadbright,7.0,17,0,294.9061393737793,294.89898681640625,896,1
160,quadbright,8.0,18,1,98.78802299499512,493.6020374298096,1328,1
161,quadbright,9.0,11,1,592.4749374389648,592.4689769744873,1348,1
162,quadbright,10.0,11,1,394.8948383331299,394.8848247528076,856,1
163,quadbright,11.0,11,1,691.7812824249268,691.7760372161865,1348,1
164,quadbright,12.0,11,1,493.5359954833984,493.5281276702881,1110,1
165,quadbright,13.0,11,1,493.67618560791016,493.67213249206543,1139,1
166,quadbright,14.0,11,1,493.9320087432861,493.9267635345459,1086,1
167,quadbright,15.0,11,1,495.4159259796143,495.4068660736084,1346,1
168,quadbright,16.0,11,1,493.82495880126953,493.81089210510254,800,1
169,quadbright,17.0,11,1,430.548906326294,430.5458068847656,806,1
170,quadbright,18.0,11,1,527.6608467102051,527.6570320129395,1313,1
171,quadbright,19.0,11,1,593.4877395629883,593.4658050537109,912,1
172,quadbright,20.0,17,1,593.9979553222656,593.9931869506836,1467,1
173,quadbright,21.0,17,1,394.5531845092773,394.5491313934326,1320,1
174,quadbright,22.0,11,1,494.0221309661865,494.0159320831299,1017,1
175,quadbright,23.0,11,1,594.1269397735596,594.1238403320312,1487,1
176,quadbright,24.0,20,1,985.9120845794678,985.9051704406738,1039,1
177,quadbright,25.0,11,1,493.84498596191406,493.84069442749023,1415,1
178,quadbright,26.0,17,1,396.1951732635498,396.1913585662842,1460,1
179,quadbright,27.0,11,1,593.7612056732178,593.7590599060059,1256,1
180,quadbright,28.0,26,1,493.8170909881592,493.8120841979981,1292,1
181,quadbright,29.0,11,0,591.7809009552002,591.7758941650391,1345,1
182,quadbright,30.0,23,1,495.1798915863037,495.17202377319336,1375,1
183,quadbright,5.0,11,1,198.66633415222168,592.9200649261475,1300,1
184,quadbright,6.0,11,1,199.34511184692383,593.8270092010498,1426,1
185,quadbright,7.0,18,1,98.7088680267334,394.66071128845215,1432,1
186,quadbright,8.0,18,1,99.41983222961426,496.7260360717773,1418,1
187,quadbright,9.0,11,1,198.1360912322998,591.0542011260986,1490,1
188,quadbright,10.0,11,1,98.56367111206056,495.8209991455078,1430,1
189,quadbright,11.0,11,1,2015.653133392334,2015.6500339508057,1260,1
190,quadbright,12.0,11,1,527.0202159881592,527.0180702209473,1261,1
191,quadbright,13.0,11,1,893.0017948150635,893.0008411407471,929,1
192,quadbright,14.0,11,1,493.8650131225586,493.8640594482422,969,1
193,quadbright,15.0,11,1,591.4733409881592,591.4642810821533,903,1
194,quadbright,16.0,11,1,493.4561252593994,493.4539794921875,1197,1
195,quadbright,17.0,11,1,597.2321033477783,597.22900390625,1144,1
196,quadbright,18.0,11,1,494.1108226776123,494.107723236084,1200,1
197,quadbright,19.0,11,1,395.784854888916,395.7791328430176,897,1
198,quadbright,20.0,15,1,592.4780368804932,592.4761295318604,1434,1
199,quadbright,21.0,15,1,592.2548770904541,592.2539234161377,1132,1
200,quadbright,22.0,11,1,592.736005783081,592.7309989929199,1461,1
201,quadbright,23.0,11,1,493.3097362518311,493.30782890319824,1422,1
202,quadbright,24.0,20,1,395.3731060028076,395.3678607940674,942,1
203,quadbright,25.0,11,1,926.5038967132568,926.4981746673584,817,1
204,quadbright,26.0,15,1,592.5018787384033,592.4968719482422,832,1
205,quadbright,27.0,11,1,695.8129405975342,695.8112716674805,921,1
206,quadbright,28.0,26,1,594.0589904785156,594.0561294555664,821,1
207,quadbright,29.0,14,1,692.4028396606445,692.4002170562744,1081,1
208,quadbright,30.0,22,1,493.7560558319092,493.7510490417481,1298,1
209,quadbright,5.0,8,1,491.9118881225586,491.9111728668213,1405,1
210,quadbright,6.0,8,1,198.24695587158203,592.7939414978027,1090,1
211,quadbright,7.0,18,1,130.87105751037598,624.9198913574219,1297,1
212,quadbright,8.0,17,1,426.0609149932861,426.0599613189697,1189,1
213,quadbright,9.0,8,1,1021.1730003356934,1021.169900894165,955,1
214,quadbright,10.0,8,1,99.42388534545898,523.665189743042,1271,1
215,quadbright,11.0,8,1,99.75981712341309,526.1318683624268,1416,1
216,quadbright,12.0,8,1,298.5711097717285,725.0261306762695,1045,1
217,quadbright,13.0,8,1,527.454137802124,527.4522304534912,1333,1
218,quadbright,14.0,8,1,624.9692440032959,624.9620914459229,1463,1
219,quadbright,15.0,8,1,892.3971652984619,892.3931121826172,825,1
220,quadbright,16.0,8,1,693.4530735015869,693.446159362793,1283,1
221,quadbright,17.0,8,1,494.51589584350586,494.51184272766113,865,1
222,quadbright,18.0,8,1,99.93290901184082,494.0669536590576,914,1
223,quadbright,19.0,8,1,593.3129787445068,593.311071395874,1184,1
224,quadbright,20.0,15,1,593.2018756866455,593.1987762451172,1213,1
225,quadbright,21.0,15,1,493.8328266143799,493.8266277313232,1351,1
226,quadbright,22.0,8,1,494.45509910583496,494.4179058074951,918,1
227,quadbright,23.0,8,1,1384.0727806091309,1384.0720653533936,982,1
228,quadbright,24.0,18,1,493.988037109375,493.980884552002,912,1
229,quadbright,25.0,8,0,1219.1741466522217,1219.170093536377,1371,1
230,quadbright,26.0,15,1,526.4990329742432,526.4949798583984,1208,1
231,quadbright,27.0,8,0,723.9706516265869,723.9689826965332,1259,1
232,quadbright,28.0,24,1,526.1008739471436,526.0939598083496,835,1
233,quadbright,29.0,14,1,525.5460739135742,525.5439281463623,1475,1
234,quadbright,30.0,22,0,692.1908855438232,692.1887397766113,834,1
235,quadbright,5.0,8,1,198.3242034912109,596.6613292694092,1105,1
236,quadbright,6.0,8,1,198.53806495666504,593.3620929718018,898,1
237,quadbright,7.0,17,1,526.0210037231445,526.0188579559326,1194,1
238,quadbright,8.0,17,1,393.2979106903076,393.2929039001465,1049,1
239,quadbright,9.0,8,1,527.6479721069336,527.6458263397217,804,1
240,quadbright,10.0,8,1,493.121862411499,493.1137561798096,1003,1
241,quadbright,11.0,8,1,393.8257694244385,393.8179016113281,944,1
242,quadbright,12.0,8,1,593.3377742767334,593.3339595794678,989,1
243,quadbright,13.0,8,1,98.92725944519044,494.16327476501465,1117,1
244,quadbright,14.0,8,1,394.4149017333984,394.4118022918701,1474,1
245,quadbright,15.0,8,1,690.194845199585,690.1900768280029,1066,1
246,quadbright,16.0,8,1,793.9939498901367,793.9918041229248,1084,1
247,quadbright,17.0,8,1,889.786958694458,889.7831439971924,1211,1
248,quadbright,18.0,8,0,593.5409069061279,593.5366153717041,1353,1
249,quadbright,19.0,8,1,725.0690460205078,725.067138671875,1078,1
250,quadbright,20.0,14,1,497.7400302886963,497.7371692657471,1132,1
251,quadbright,21.0,14,1,395.2839374542236,395.2798843383789,1002,1
252,quadbright,22.0,8,1,1285.588979721069,1285.585880279541,817,1
253,quadbright,23.0,8,0,791.6469573974609,791.6438579559326,1410,1
254,quadbright,24.0,18,1,492.37990379333496,492.37704277038574,1232,1
255,quadbright,25.0,11,0,594.0361022949219,594.0341949462891,1429,1
256,quadbright,26.0,14,0,594.1190719604492,594.1109657287598,1487,1
257,quadbright,27.0,11,1,888.0908489227295,888.085126876831,1500,1
258,quadbright,28.0,24,1,592.1792984008789,592.1750068664551,1185,1
259,quadbright,29.0,12,1,497.4079132080078,497.4071979522705,1095,1
260,quadbright,30.0,23,1,593.0941104888916,593.0931568145752,911,1
261,quadbright,5.0,5,1,198.07100296020508,691.9898986816406,1050,1
262,quadbright,6.0,5,1,1185.349941253662,1185.3439807891846,1247,1
263,quadbright,7.0,17,1,198.4100341796875,494.2190647125244,1381,1
264,quadbright,8.0,15,1,197.4618434906006,596.7569351196289,1249,1
265,quadbright,9.0,5,1,99.13921356201172,692.7611827850342,1452,1
266,quadbright,10.0,5,0,790.5771732330322,790.5731201171875,1336,1
267,quadbright,11.0,5,1,198.59600067138672,691.5268898010254,1365,1
268,quadbright,12.0,5,1,496.0219860076904,496.0188865661621,1402,1
269,quadbright,13.0,5,0,197.81827926635745,494.33016777038574,996,1
270,quadbright,14.0,5,1,491.9581413269043,491.9533729553223,1450,1
271,quadbright,15.0,5,1,592.8068161010742,592.8027629852295,1138,1
272,quadbright,16.0,5,1,724.4207859039307,724.4148254394531,870,1
273,quadbright,17.0,5,1,493.8018321990967,493.7980175018311,1007,1
274,quadbright,18.0,11,0,493.52383613586426,493.52097511291504,869,1
275,quadbright,19.0,5,0,691.2789344787598,691.277027130127,1318,1
276,quadbright,20.0,14,1,594.8386192321777,594.8338508605957,1265,1
277,quadbright,21.0,14,1,499.0546703338623,499.051570892334,1229,1
278,quadbright,22.0,5,1,493.5989379882813,493.588924407959,1179,1
279,quadbright,23.0,11,1,493.9751625061035,493.9713478088379,1127,1
280,quadbright,24.0,17,1,496.0970878601074,496.0920810699463,1034,1
281,quadbright,25.0,14,1,525.7730484008789,525.7699489593506,1048,1
282,quadbright,26.0,15,0,689.4330978393555,689.4309520721436,1188,1
283,quadbright,27.0,11,0,491.7969703674317,491.7948246002197,1470,1
284,quadbright,28.0,23,1,591.6879177093506,591.6826725006104,1280,1
285,quadbright,29.0,12,0,724.200963973999,724.1978645324707,1140,1
286,quadbright,30.0,23,1,2077.7790546417236,2077.769994735718,978,1
287,quadbright,5.0,5,1,199.13291931152344,722.2869396209717,1491,1
288,quadbright,6.0,5,1,97.81289100646973,493.3817386627197,823,1
289,quadbright,7.0,16,1,198.38905334472656,592.3597812652588,1024,1
290,quadbright,8.0,15,1,492.79308319091797,492.78736114501953,1423,1
291,quadbright,9.0,5,1,198.23408126831055,691.6239261627197,1175,1
292,quadbright,10.0,8,0,98.82712364196777,887.6218795776367,1396,1
293,quadbright,11.0,5,0,690.2050971984863,690.1981830596924,1246,1
294,quadbright,12.0,5,1,690.4199123382568,690.4129981994629,1106,1
295,quadbright,13.0,8,0,624.2308616638184,624.2258548736572,813,1
296,quadbright,14.0,5,1,694.0197944641113,694.0188407897949,1192,1
297,quadbright,15.0,5,1,693.2497024536133,693.2468414306641,1473,1
298,quadbright,16.0,5,1,493.15595626831055,493.1528568267822,1018,1
299,quadbright,17.0,5,1,426.0401725769043,426.0363578796387,1226,1
300,quadbright,18.0,14,1,592.3399925231934,592.3340320587158,944,1
301,quadbright,19.0,8,1,624.9501705169678,624.9473094940186,1261,1
302,quadbright,20.0,12,1,495.0120449066162,495.0101375579834,879,1
303,quadbright,21.0,12,1,492.85101890563965,492.85006523132324,1035,1
304,quadbright,22.0,5,1,494.04191970825195,494.035005569458,1448,1
305,quadbright,23.0,11,1,889.631986618042,889.6257877349854,1163,1
306,quadbright,24.0,17,1,593.5590267181396,593.555212020874,1234,1
307,quadbright,25.0,14,1,889.1971111297607,889.1909122467041,1035,1
308,quadbright,26.0,17,1,790.5070781707764,790.4970645904541,1176,1
309,quadbright,27.0,12,1,592.2887325286865,592.2861099243164,1248,1
310,quadbright,28.0,23,1,791.9108867645264,791.9020652770996,1378,1
311,quadbright,29.0,15,1,591.928243637085,591.9239521026611,1122,1
312,quadbright,30.0,23,1,492.10500717163086,492.0971393585205,842,1
313,quadbright,5.0,5,1,493.9699172973633,493.96705627441406,1282,1
314,quadbright,6.0,5,1,133.1331729888916,626.6071796417236,1156,1
315,quadbright,7.0,16,1,131.0861110687256,525.5999565124512,879,1
316,quadbright,8.0,15,1,98.76585006713867,493.2370185852051,912,1
317,quadbright,9.0,5,1,688.7328624725342,688.730001449585,1460,1
318,quadbright,10.0,11,1,99.21383857727051,494.5869445800781,931,1
319,quadbright,11.0,8,1,398.21910858154297,398.21600914001465,1072,1
320,quadbright,12.0,5,1,689.7919178009033,689.7859573364258,1071,1
321,quadbright,13.0,11,1,494.5549964904785,494.5530891418457,1366,1
322,quadbright,14.0,5,1,690.0689601898193,690.0539398193359,916,1
323,quadbright,15.0,5,1,723.2811450958252,723.2749462127686,1087,1
324,quadbright,16.0,5,1,723.0195999145508,723.0138778686523,866,1
325,quadbright,17.0,5,0,723.4129905700684,723.40989112854,1032,1
326,quadbright,18.0,14,1,1219.5749282836914,1219.5699214935303,1453,1
327,quadbright,19.0,8,1,890.1321887969971,890.1219367980957,807,1
328,quadbright,20.0,12,1,691.551923751831,691.547155380249,885,1
329,quadbright,21.0,12,1,496.3366985321045,496.33288383483887,941,1
330,quadbright,22.0,5,1,691.0068988800049,690.9980773925781,1344,1
331,quadbright,23.0,11,1,888.2009983062744,888.1978988647461,853,1
332,quadbright,24.0,17,1,890.0728225708008,890.0697231292725,1177,1
333,quadbright,25.0,14,1,592.5400257110596,592.5350189208984,883,1
334,quadbright,26.0,17,1,493.1941032409668,493.18695068359375,1196,1
335,quadbright,27.0,12,1,692.8038597106934,692.7998065948486,946,1
336,quadbright,28.0,23,0,890.0609016418457,890.0530338287354,981,1
337,quadbright,29.0,15,0,988.882303237915,988.8770580291748,1495,1
338,quadbright,30.0,20,1,789.963960647583,789.9620532989502,1105,1
339,quadbright,5.0,2,0,1088.4160995483398,1088.4130001068115,831,1
340,quadbright,6.0,2,0,97.50509262084961,789.8080348968506,852,1
341,quadbright,7.0,13,1,98.24609756469727,496.72818183898926,901,1
342,quadbright,8.0,12,1,99.6708869934082,494.16589736938477,1231,1
343,quadbright,9.0,2,1,1186.100959777832,1186.093807220459,826,1
344,quadbright,10.0,11,1,790.8511161804199,790.8461093902588,1417,1
345,quadbright,11.0,8,0,196.50816917419434,690.5951499938965,1170,1
346,quadbright,12.0,2,0,823.958158493042,823.9560127258301,1393,1
347,quadbright,13.0,11,1,697.1609592437744,697.1588134765625,885,1
348,quadbright,14.0,2,0,790.9588813781738,790.9560203552246,1385,1
349,quadbright,15.0,2,0,690.2022361755371,690.2000904083252,1454,1
350,quadbright,16.0,2,1,1285.0687503814697,1285.0630283355713,917,1
351,quadbright,17.0,8,0,986.0782623291016,986.069917678833,1332,1
352,quadbright,18.0,11,1,692.3651695251465,692.3611164093018,924,1
353,quadbright,19.0,5,0,1419.287919998169,1419.2838668823242,1279,1
354,quadbright,20.0,9,1,823.9626884460449,823.9569664001465,1343,1
355,quadbright,21.0,9,1,494.3399429321289,494.3349361419678,1435,1
356,quadbright,22.0,2,1,889.512300491333,889.5082473754883,1145,1
357,quadbright,23.0,8,1,592.2329425811768,592.2229290008545,1419,1
358,quadbright,24.0,14,1,493.1199550628662,493.11208724975586,1239,1
359,quadbright,25.0,11,0,593.4329032897949,593.4288501739502,1315,1
360,quadbright,26.0,14,0,197.16286659240723,1285.2420806884766,1110,1
361,quadbright,27.0,9,1,1286.5169048309326,1286.5140438079834,1014,1
362,quadbright,28.0,26,1,595.6990718841553,595.696210861206,819,1
363,quadbright,29.0,18,1,1189.7101402282715,1189.7070407867432,902,1
364,quadbright,30.0,20,1,493.6943054199219,493.69120597839355,854,1
365,quadbright,5.0,5,1,595.4959392547607,595.4921245574951,903,1
366,quadbright,6.0,5,1,624.9866485595703,624.9418258666992,1346,1
367,quadbright,7.0,13,1,98.25921058654785,595.1149463653564,936,1
368,quadbright,8.0,12,1,494.24099922180176,494.23885345458984,1293,1
369,quadbright,9.0,2,1,1417.3531532287598,1417.3469543457031,897,1
370,quadbright,10.0,8,1,823.718786239624,823.7130641937256,1447,1
371,quadbright,11.0,11,1,624.1800785064697,624.1731643676758,808,1
372,quadbright,12.0,5,1,1812.8299713134766,1812.824010848999,1075,1
373,quadbright,13.0,8,0,889.700174331665,889.6980285644531,936,1
374,quadbright,14.0,5,1,593.7709808349609,593.7678813934326,1108,1
375,quadbright,15.0,5,0,1681.4188957214355,1681.4169883728027,807,1
376,quadbright,16.0,2,0,791.4049625396729,791.3968563079834,989,1
377,quadbright,17.0,11,0,1090.317964553833,1090.3148651123047,1201,1
378,quadbright,18.0,11,1,694.1816806793213,694.1738128662109,1161,1
379,quadbright,19.0,8,0,690.9658908843994,690.9608840942383,1149,1
380,quadbright,20.0,9,1,493.1211471557617,493.117094039917,888,1
381,quadbright,21.0,9,1,890.3708457946777,890.3689384460449,1394,1
382,quadbright,22.0,2,1,790.0197505950928,790.0190353393555,1010,1
383,quadbright,23.0,8,1,690.9739971160889,690.9680366516113,1277,1
384,quadbright,24.0,14,1,594.0990447998047,594.0952301025391,1485,1
385,quadbright,25.0,14,1,494.1210746765137,494.11702156066895,865,1
386,quadbright,26.0,17,1,493.6950206756592,493.68929862976074,994,1
387,quadbright,27.0,9,1,592.8020477294922,592.797040939331,1197,1
388,quadbright,28.0,26,0,395.01500129699707,395.01214027404785,1471,1
389,quadbright,29.0,18,0,1286.1759662628174,1286.1709594726562,1052,1
390,quadbright,30.0,17,1,890.3501033782959,890.3470039367676,1475,1
