trial,condition,eccentricity,magnitude,correct,srt_ms,keyboard_rt_ms,pre_change_ms,valid
1,control,5.0,20,1,692.4788951873779,692.4748420715332,1486,1
2,control,6.0,20,1,98.47617149353027,692.1792030334473,801,1
3,control,7.0,20,1,99.06411170959473,583.1420421600342,960,1
4,control,8.0,20,1,100.48103332519531,494.2941665649414,1293,1
5,control,9.0,20,1,790.6968593597412,790.6959056854248,1051,1
6,control,10.0,20,1,691.119909286499,691.1182403564453,1393,1
7,control,11.0,20,1,594.3958759307861,594.3951606750488,836,1
8,control,12.0,20,1,492.8300380706787,492.8278923034668,980,1
9,control,13.0,20,1,99.29275512695312,824.4118690490723,1427,1
10,control,14.0,20,1,616.3997650146484,616.398811340332,1399,1
11,control,15.0,20,1,616.6172027587891,616.6162490844727,1266,1
12,control,16.0,20,1,691.4010047912598,691.3959980010986,1420,1
13,control,17.0,20,1,593.6098098754883,593.6028957366943,1068,1
14,control,18.0,20,1,879.2779445648193,879.2769908905029,805,1
15,control,19.0,20,1,691.5178298950195,691.5109157562256,809,1
16,control,20.0,20,1,596.7051982879639,596.6999530792236,926,1
17,control,21.0,20,1,781.4948558807373,781.4939022064209,980,1
18,control,22.0,20,1,595.6368446350098,595.634937286377,1158,1
19,control,23.0,20,1,594.1851139068604,594.184160232544,944,1
20,control,24.0,20,1,627.3040771484375,627.3009777069092,922,1
21,control,25.0,20,0,889.8167610168457,889.8138999938965,1469,1
22,control,26.0,20,0,988.3699417114258,988.365888595581,1151,1
23,control,27.0,20,1,594.5086479187012,594.5026874542236,1211,1
24,control,28.0,20,1,584.2480659484863,584.2468738555908,854,1
25,control,29.0,20,1,593.3687686920166,593.3628082275391,802,1
26,control,30.0,20,0,692.5339698791504,692.5339698791504,1440,1
27,control,5.0,20,1,625.6899833679199,625.6861686706543,1014,1
28,control,6.0,20,1,616.3351535797119,616.3339614868164,1259,1
29,control,7.0,20,1,99.67327117919922,593.799352645874,909,1
30,control,8.0,20,1,495.0447082519531,495.0428009033203,1431,1
31,control,9.0,20,1,504.41694259643555,504.41527366638184,844,1
32,control,10.0,20,1,899.1889953613281,899.1751670837402,1007,0
33,control,10.0,20,1,504.8840045928955,504.8787593841553,1328,1
34,control,11.0,20,1,595.4828262329102,595.4799652099609,955,1
35,control,12.0,20,1,494.96912956237793,494.9681758880615,1100,1
36,control,13.0,20,1,703.0882835388184,703.08518409729,1013,1
37,control,14.0,20,1,494.80509757995605,494.80414390563965,1430,1
38,control,15.0,20,1,1198.0388164520264,1198.0369091033936,1148,1
39,control,16.0,20,1,1295.8650588989258,1295.863151550293,825,1
40,control,17.0,20,1,790.0769710540771,790.0748252868652,904,1
41,control,18.0,20,1,592.7197933197021,592.7107334136963,816,1
42,control,19.0,20,1,799.4799613952637,799.4780540466309,914,1
43,control,20.0,20,1,790.9588813781738,790.9538745880127,960,1
44,control,21.0,20,1,683.9728355407715,683.9706897735596,914,1
45,control,22.0,20,1,702.3370265960693,702.329158782959,1276,1
46,control,23.0,20,1,615.3068542480469,615.3059005737305,891,1
47,control,24.0,20,1,724.524974822998,724.5209217071533,1107,1
48,control,25.0,23,1,726.7880439758301,726.7849445343018,872,1
49,control,26.0,23,1,790.3192043304443,790.3151512145996,1438,1
50,control,27.0,20,1,595.5069065093994,595.4999923706055,1382,1
51,control,28.0,20,1,627.4440288543701,627.4430751800537,1063,1
52,control,29.0,20,1,589.6100997924805,589.608907699585,1173,1
53,control,30.0,23,1,824.2359161376953,824.2330551147461,1212,1
54,control,5.0,17,1,202.10576057434082,630.173921585083,1458,1
55,control,6.0,17,1,98.50883483886719,494.3878650665283,822,1
56,control,7.0,17,1,99.27129745483398,691.7262077331543,1021,1
57,control,8.0,17,1,499.96185302734375,499.9539852142334,1421,1
58,control,9.0,17,1,502.302885055542,502.29811668395996,1388,1
59,control,10.0,17,1,526.3721942901611,526.3710021972656,1035,1
60,control,11.0,17,1,494.75622177124023,494.7550296783447,1320,1
61,control,12.0,17,1,494.6026802062988,494.6019649505615,1305,1
62,control,13.0,17,1,701.901912689209,701.8988132476807,1306,1
63,control,14.0,17,1,597.4442958831787,597.4431037902832,1180,1
64,control,15.0,17,0,1606.1160564422607,1606.1151027679443,1084,1
65,control,16.0,17,1,1714.12992477417,1714.1261100769043,902,1
66,control,17.0,17,1,626.615047454834,626.610279083252,1061,1
67,control,18.0,17,1,525.651216506958,525.6481170654297,1115,1
68,control,19.0,17,1,591.9411182403564,591.9389724731445,1065,1
69,control,20.0,17,1,503.856897354126,503.85189056396484,1192,1
70,control,21.0,17,1,594.3970680236816,594.3951606750488,951,1
71,control,22.0,17,1,497.15614318847656,497.15518951416016,1218,1
72,control,23.0,17,1,499.54795837402344,499.5458126068115,1470,1
73,control,24.0,17,1,1079.0021419525146,1079.0011882781982,1058,1
74,control,25.0,23,1,592.3511981964111,592.3430919647217,1238,1
75,control,26.0,23,1,594.5119857788086,594.5069789886475,1103,1
76,control,27.0,17,1,495.0218200683594,495.02086639404297,1466,1
77,control,28.0,17,1,494.9171543121338,494.9162006378174,1291,1
78,control,29.0,17,1,600.3470420837402,600.3410816192627,1149,1
79,control,30.0,23,1,594.066858291626,594.0647125244141,955,1
80,control,5.0,17,1,98.97589683532715,395.80678939819336,1351,1
81,control,6.0,17,1,99.02191162109375,394.2708969116211,1142,1
82,control,7.0,17,1,98.876953125,494.9681758880615,809,1
83,control,8.0,17,1,100.63791275024414,495.59879302978516,1397,1
84,control,9.0,17,1,502.46310234069824,502.460241317749,1421,1
85,control,10.0,17,1,494.04287338256836,494.0369129180908,1210,1
86,control,11.0,17,1,501.6970634460449,501.6930103302002,880,1
87,control,12.0,17,1,394.6681022644043,394.6659564971924,1373,1
88,control,13.0,17,1,494.90976333618164,494.90880966186523,1328,1
89,control,14.0,17,1,682.6841831207275,682.6832294464111,1129,1
90,control,15.0,20,1,626.0058879852295,626.0049343109131,1087,1
91,control,16.0,17,1,527.7690887451172,527.7659893035889,1136,1
92,control,17.0,17,0,1426.59592628479,1426.5930652618408,888,1
93,control,18.0,17,1,990.2207851409912,990.2098178863525,977,1
94,control,19.0,17,1,692.4490928649902,692.4469470977783,1204,1
95,control,20.0,17,1,492.372989654541,492.3689365386963,1252,1
96,control,21.0,17,1,504.0149688720703,504.0121078491211,1440,1
97,control,22.0,17,1,592.4508571624756,592.4489498138428,885,1
98,control,23.0,17,1,584.6028327941895,584.601879119873,1470,1
99,control,24.0,17,1,497.0676898956299,497.0660209655762,1441,1
100,control,25.0,20,1,592.4680233001709,592.4639701843262,1215,1
101,control,26.0,20,1,881.2596797943115,881.2587261199951,1268,1
102,control,27.0,17,0,693.688154220581,693.6819553375244,1003,1
103,control,28.0,17,1,790.4641628265381,790.4601097106934,865,1
104,control,29.0,17,1,692.6479339599609,692.6460266113281,1436,0
105,control,29.0,17,1,505.24425506591797,505.2380561828613,885,1
106,control,30.0,20,0,1375.377893447876,1375.3769397735596,1174,1
107,control,5.0,14,1,198.18377494812012,493.7248229980469,846,1
108,control,6.0,14,1,98.02484512329102,484.86804962158203,1128,1
109,control,7.0,14,1,98.91891479492188,497.03407287597656,1133,1
110,control,8.0,14,1,100.0361442565918,693.0902004241943,1261,1
111,control,9.0,14,1,493.8068389892578,493.8037395477295,826,1
112,control,10.0,14,1,98.54912757873535,595.6683158874512,818,1
113,control,11.0,14,1,496.2749481201172,496.2737560272217,1290,1
114,control,12.0,14,1,492.048978805542,492.0470714569092,1488,1
115,control,13.0,14,1,493.17002296447754,493.1647777557373,917,1
116,control,14.0,14,1,495.01800537109375,495.0127601623535,1334,1
117,control,15.0,20,1,593.8119888305664,593.81103515625,868,1
118,control,16.0,14,1,491.4982318878174,491.49417877197266,836,1
119,control,17.0,20,1,527.134895324707,527.1289348602295,1091,1
120,control,18.0,14,1,593.3561325073242,593.3530330657959,934,1
121,control,19.0,14,1,781.3429832458496,781.3420295715332,1251,1
122,control,20.0,14,1,526.068925857544,526.0579586029053,1089,1
123,control,21.0,14,0,1093.2807922363281,1093.2729244232178,1025,1
124,control,22.0,14,1,795.4859733581543,795.4788208007812,863,1
125,control,23.0,14,1,492.1908378601074,492.189884185791,1031,1
126,control,24.0,14,1,493.47615242004395,493.4709072113037,1364,1
127,control,25.0,20,1,635.3557109832764,635.35475730896,946,1
128,control,26.0,20,1,492.8140640258789,492.8100109100342,898,0
129,control,26.0,20,1,592.703104019165,592.7011966705322,884,1
130,control,27.0,20,0,493.9310550689697,493.9260482788086,858,1
131,control,28.0,14,1,495.14174461364746,495.1348304748535,864,1
132,control,29.0,14,0,989.7079467773438,989.7069931030273,1396,1
133,control,30.0,23,0,979.5329570770264,979.53200340271,1139,1
134,control,5.0,14,1,98.40703010559082,494.02594566345215,1272,1
135,control,6.0,14,1,98.43134880065918,483.6430549621582,1146,1
136,control,7.0,14,1,98.41108322143555,494.88115310668945,1110,1
137,control,8.0,14,1,100.34584999084473,387.3457908630371,1098,1
138,control,9.0,14,1,88.6232852935791,385.36715507507324,1338,1
139,control,10.0,14,1,99.12228584289551,394.1071033477783,1006,1
140,control,11.0,14,1,517.5809860229492,517.5800323486328,1322,1
141,control,12.0,14,1,506.93297386169434,506.929874420166,1104,1
142,control,13.0,14,1,493.93200874328613,493.9258098602295,937,1
143,control,14.0,14,1,494.8999881744385,494.89903450012207,1001,1
144,control,15.0,18,1,888.4930610656738,888.4921073913574,1186,1
145,control,16.0,14,1,495.4860210418701,495.47600746154785,1055,1
146,control,17.0,20,1,483.0441474914551,483.0431938171387,1494,1
147,control,18.0,14,1,503.6611557006836,503.6499500274658,1444,1
148,control,19.0,14,1,396.11315727233887,396.11220359802246,920,1
149,control,20.0,14,1,525.2013206481934,525.1922607421875,1078,1
150,control,21.0,17,1,493.1049346923828,493.0992126464844,1194,1
151,control,22.0,14,0,1517.9131031036377,1517.902135848999,1266,1
152,control,23.0,14,1,591.6757583618164,591.6688442230225,1488,1
153,control,24.0,14,1,592.940092086792,592.933177947998,925,1
154,control,25.0,17,1,692.8999423980713,692.8961277008057,1077,1
155,control,26.0,17,1,1078.705072402954,1078.7038803100586,1329,1
156,control,27.0,23,1,1277.7206897735596,1277.7180671691895,906,1
157,control,28.0,14,1,1513.681173324585,1513.6802196502686,1104,1
158,control,29.0,17,0,1096.7719554901123,1096.7679023742676,1180,1
159,control,30.0,24,0,1098.271131515503,1098.2682704925537,1115,1
160,control,5.0,11,1,98.87385368347168,494.16208267211914,813,1
161,control,6.0,11,1,395.374059677124,395.3721523284912,887,1
162,control,7.0,11,1,197.53193855285645,536.4549160003662,990,1
163,control,8.0,11,1,591.9008255004883,591.8986797332764,867,1
164,control,9.0,11,1,329.3299674987793,517.6939964294434,1163,1
165,control,10.0,11,1,490.7393455505371,490.7371997833252,832,1
166,control,11.0,11,1,493.4887886047363,493.480920791626,887,1
167,control,12.0,11,1,692.8727626800537,692.8718090057373,1191,1
168,control,13.0,11,1,693.202018737793,693.199872970581,850,1
169,control,14.0,11,1,1288.9389991760254,1288.935899734497,1485,1
170,control,15.0,18,1,495.09191513061523,495.0909614562988,840,1
171,control,16.0,11,1,1483.2267761230469,1483.2229614257812,1168,1
172,control,17.0,18,1,500.3030300140381,500.29993057250977,1365,1
173,control,18.0,11,1,494.51398849487305,494.51208114624023,1050,1
174,control,19.0,11,1,1218.8551425933838,1218.8498973846436,997,1
175,control,20.0,11,1,625.4940032958984,625.4899501800537,1113,1
176,control,21.0,17,1,494.1723346710205,494.1692352294922,951,1
177,control,22.0,17,1,591.9668674468994,591.9637680053711,866,1
178,control,23.0,11,1,931.1318397521973,931.1258792877197,918,1
179,control,24.0,11,0,992.6130771636963,992.6109313964844,1310,1
180,control,25.0,17,1,891.9668197631836,891.9661045074463,1011,1
181,control,26.0,17,1,795.3059673309326,795.2988147735596,984,1
182,control,27.0,23,0,827.409029006958,827.3940086364746,1323,1
183,control,28.0,11,0,891.3347721099854,891.3347721099854,982,1
184,control,29.0,20,1,891.4272785186768,891.4241790771484,1121,1
185,control,30.0,26,0,881.7298412322998,881.7288875579834,897,1
186,control,5.0,11,1,98.76489639282227,494.7319030761719,977,1
187,control,6.0,11,1,99.62081909179688,493.175745010376,1004,1
188,control,7.0,11,1,505.77616691589355,505.77521324157715,949,1
189,control,8.0,11,1,99.12490844726562,488.7585639953613,806,1
190,control,9.0,11,1,99.2119312286377,593.0869579315186,1405,1
191,control,10.0,11,1,494.8117733001709,494.8108196258545,1489,1
192,control,11.0,11,1,494.10200119018555,494.10009384155273,939,1
193,control,12.0,11,1,592.1297073364258,592.1280384063721,1342,1
194,control,13.0,11,1,494.4901466369629,494.48394775390625,1273,1
195,control,14.0,11,1,501.79600715637207,501.7859935760498,1376,1
196,control,15.0,17,1,395.9167003631592,395.9157466888428,1467,1
197,control,16.0,11,0,900.0210762023926,900.0148773193359,1444,1
198,control,17.0,18,1,889.7488117218018,889.7418975830078,1209,1
199,control,18.0,11,1,603.2159328460693,603.2040119171143,1020,1
200,control,19.0,11,1,494.06886100769043,494.0657615661621,1232,1
201,control,20.0,11,1,494.26984786987305,494.2641258239746,1417,1
202,control,21.0,15,1,505.0840377807617,505.0811767578125,1144,1
203,control,22.0,17,1,552.893877029419,552.8929233551025,868,1
204,control,23.0,11,1,493.21699142456055,493.2141304016113,808,1
205,control,24.0,14,1,601.5129089355469,601.496696472168,1266,1
206,control,25.0,14,1,601.5758514404297,601.5720367431641,1415,1
207,control,26.0,14,1,1097.5186824798584,1097.5139141082764,1232,1
208,control,27.0,24,1,691.3678646087646,691.3599967956543,1111,1
209,control,28.0,14,0,891.3741111755371,891.3729190826416,1315,1
210,control,29.0,20,0,781.6369533538818,781.6359996795654,838,1
211,control,30.0,27,0,1276.360034942627,1276.3588428497314,1133,1
212,control,5.0,8,1,98.94180297851562,495.3930377960205,820,1
213,control,6.0,8,1,99.09796714782715,494.84801292419434,920,1
214,control,7.0,8,1,98.28615188598633,384.66405868530273,1308,1
215,control,8.0,8,1,1188.209056854248,1188.2071495056152,1324,1
216,control,9.0,8,1,100.0361442565918,504.2839050292969,1129,1
217,control,10.0,8,1,493.10994148254395,493.1020736694336,1499,1
218,control,11.0,8,1,496.71077728271484,496.7060089111328,1310,1
219,control,12.0,8,1,624.737024307251,624.7317790985107,1107,1
220,control,13.0,8,1,395.89619636535645,395.89500427246094,1189,1
221,control,14.0,8,1,1222.6066589355469,1222.6057052612305,1167,0
222,control,14.0,8,1,1714.2527103424072,1714.2510414123535,1380,1
223,control,15.0,17,1,485.8417510986328,485.8410358428955,1152,1
224,control,16.0,14,0,593.7530994415283,593.7521457672119,1229,1
225,control,17.0,17,0,505.155086517334,505.14936447143555,1150,1
226,control,18.0,8,0,693.3159828186035,693.314790725708,1251,1
227,control,19.0,8,0,1186.0439777374268,1186.0408782958984,911,1
228,control,20.0,8,1,594.4340229034424,594.4309234619141,1327,1
229,control,21.0,15,1,581.8648338317871,581.8641185760498,842,1
230,control,22.0,15,0,495.4380989074707,495.4380989074707,1197,1
231,control,23.0,8,1,592.1719074249268,592.1661853790283,1312,1
232,control,24.0,14,1,2011.0630989074707,2011.0599994659424,1226,1
233,control,25.0,14,1,1126.3139247894287,1126.3117790222168,1304,1
234,control,26.0,14,1,922.5039482116699,922.501802444458,911,1
235,control,27.0,24,1,724.2608070373535,724.2598533630371,1049,1
236,control,28.0,17,0,692.8999423980713,692.8958892822266,878,1
237,control,29.0,21,0,1217.7197933197021,1217.7138328552246,845,1
238,control,30.0,29,1,1029.155969619751,1029.1471481323242,886,1
239,control,5.0,8,1,100.20685195922852,494.553804397583,1046,1
240,control,6.0,8,1,102.0960807800293,499.41492080688477,1343,1
241,control,7.0,8,1,98.82593154907227,494.48609352111816,1303,1
242,control,8.0,8,1,98.77300262451172,394.97995376586914,1335,1
243,control,9.0,8,1,693.0630207061768,693.0580139160156,892,1
244,control,10.0,8,1,724.6720790863037,724.6642112731934,894,1
245,control,11.0,8,1,505.2921772003174,505.28502464294434,997,1
246,control,12.0,8,1,591.9620990753174,591.9523239135742,1438,1
247,control,13.0,8,1,494.74406242370605,494.74310874938965,1313,1
248,control,14.0,8,1,1410.6712341308594,1410.6690883636475,1105,1
249,control,15.0,15,1,493.18480491638184,493.1797981262207,869,1
250,control,16.0,17,1,526.4980792999268,526.4933109283447,835,1
251,control,17.0,18,1,495.1457977294922,495.1448440551758,1040,1
252,control,18.0,11,1,494.7538375854492,494.7500228881836,1430,1
253,control,19.0,11,1,593.9247608184814,593.9228534698486,1304,1
254,control,20.0,8,1,601.8388271331787,601.8345355987549,816,1
255,control,21.0,14,1,492.7530288696289,492.7480220794678,1119,1
256,control,22.0,17,1,494.83394622802734,494.830846786499,906,1
257,control,23.0,8,1,987.3700141906738,987.3628616333008,1153,1
258,control,24.0,12,1,801.4528751373291,801.440954208374,887,1
259,control,25.0,11,1,692.9600238800049,692.9559707641602,1244,1
260,control,26.0,11,0,989.487886428833,989.4850254058838,1004,1
261,control,27.0,23,1,812.7491474151611,812.7481937408447,1364,1
262,control,28.0,20,0,686.194896697998,686.1937046051025,1329,1
263,control,29.0,23,1,1823.65083694458,1823.6439228057861,1050,1
264,control,30.0,29,0,834.1128826141357,834.1047763824463,827,1
265,control,5.0,5,1,197.36409187316895,527.2548198699951,887,1
266,control,6.0,5,1,99.72882270812988,493.99709701538086,1271,1
267,control,7.0,5,1,198.36783409118652,594.1739082336426,1391,1
268,control,8.0,5,1,98.91128540039062,494.5189952850342,1241,1
269,control,9.0,5,1,494.978666305542,494.9777126312256,917,1
270,control,10.0,5,1,691.7262077331543,691.723108291626,1474,1
271,control,11.0,5,1,891.2298679351807,891.2272453308105,873,1
272,control,12.0,5,1,594.1989421844482,594.1979885101318,1172,1
273,control,13.0,5,1,593.2891368865967,593.2879447937012,1177,1
274,control,14.0,5,1,690.0229454040527,690.014123916626,1400,1
275,control,15.0,15,1,496.3839054107666,496.3831901550293,1045,1
276,control,16.0,17,1,493.243932723999,493.23391914367676,1078,1
277,control,17.0,18,1,691.9980049133301,691.9832229614258,1157,1
278,control,18.0,11,1,601.3710498809814,601.362943649292,897,1
279,control,19.0,11,1,890.9380435943604,890.937089920044,1486,1
280,control,20.0,5,1,2020.8089351654053,2020.805835723877,1355,1
281,control,21.0,14,1,496.63615226745605,496.63329124450684,1228,1
282,control,22.0,17,1,790.7650470733643,790.7638549804688,940,1
283,control,23.0,5,1,590.8732414245605,590.8701419830322,958,1
284,control,24.0,12,1,494.4722652435303,494.47107315063477,1205,1
285,control,25.0,11,1,493.46208572387695,493.4561252593994,1459,1
286,control,26.0,14,1,501.4607906341553,501.45578384399414,1466,1
287,control,27.0,23,0,593.9319133758545,593.9309597015381,1365,1
288,control,5.0,5,1,98.80995750427246,599.632978439331,1408,1
289,control,6.0,5,1,198.78602027893066,527.9788970947266,1479,1
290,control,7.0,5,1,99.06792640686035,491.879940032959,919,1
291,control,8.0,5,1,100.45599937438965,493.76893043518066,1392,1
292,control,9.0,5,1,99.29704666137695,594.9532985687256,1270,1
293,control,10.0,5,1,495.3131675720215,495.311975479126,812,1
294,control,11.0,5,1,98.02913665771484,887.8970146179199,1066,1
295,control,12.0,5,0,1395.2503204345703,1395.247220993042,1072,1
296,control,13.0,5,0,891.3099765777588,891.308069229126,880,1
297,control,14.0,5,1,1081.3403129577637,1081.3391208648682,1338,1
298,control,15.0,14,1,590.8198356628418,590.8160209655762,857,1
299,control,16.0,15,1,494.29893493652344,494.290828704834,1379,1
300,control,17.0,17,0,593.660831451416,593.6598777770996,984,1
301,control,18.0,9,1,492.28811264038086,492.28596687316895,858,1
302,control,19.0,9,1,993.1371212005615,993.1349754333496,912,1
303,control,20.0,5,0,1021.5551853179932,1021.5530395507812,1039,1
304,control,21.0,12,1,725.538969039917,725.5330085754395,904,1
305,control,22.0,16,1,723.2882976531982,723.2813835144043,1297,1
306,control,23.0,5,1,1197.9219913482666,1197.9200839996338,866,1
307,control,24.0,11,1,990.0729656219482,990.0710582733154,1012,1
308,control,25.0,8,1,500.5056858062744,500.5018711090088,977,1
309,control,26.0,14,0,496.3829517364502,496.37913703918457,1209,1
310,control,27.0,24,1,493.93510818481445,493.93200874328613,1046,1
311,control,5.0,2,0,99.18785095214844,901.4010429382324,1405,1
312,control,6.0,2,0,98.57296943664551,1317.8989887237549,1110,1
313,control,7.0,2,1,132.74407386779785,1309.6320629119873,994,1
314,control,8.0,2,0,1615.8528327941895,1615.8480644226074,877,1
315,control,9.0,2,0,2206.3040733337402,2206.3000202178955,953,1
316,control,10.0,2,0,97.8996753692627,2068.622827529907,1280,0
317,control,10.0,2,0,1582.7059745788574,1582.6990604400635,1141,1
318,control,11.0,2,1,2309.032917022705,2309.0310096740723,1342,1
319,control,12.0,8,1,688.6780261993408,688.6677742004395,1250,1
320,control,13.0,8,1,494.45295333862305,494.4498538970947,1483,1
321,control,14.0,2,1,1517.2650814056396,1517.2641277313232,823,1
322,control,15.0,14,1,912.4929904937744,912.492036819458,1086,1
323,control,16.0,15,1,816.2798881530762,816.2791728973389,1108,1
324,control,17.0,18,1,538.470983505249,538.4702682495117,1166,1
325,control,18.0,9,1,789.4589900970459,789.4570827484131,1302,1
326,control,19.0,9,1,595.2880382537842,595.2870845794678,1211,1
327,control,20.0,8,1,493.5910701751709,493.5872554779053,1067,1
328,control,21.0,12,1,495.0599670410156,495.0580596923828,1100,1
329,control,22.0,16,1,988.955020904541,988.9500141143799,892,0
330,control,22.0,16,1,495.34082412719727,495.3348636627197,1167,1
331,control,23.0,2,1,1220.2260494232178,1220.2250957489014,1127,1
332,control,24.0,11,1,583.4329128265381,583.4300518035889,1363,1
333,control,25.0,8,0,426.43213272094727,426.42736434936523,997,1
334,control,26.0,15,1,1805.9639930725098,1805.9628009796143,1339,1
335,control,27.0,24,0,432.7108860015869,432.7089786529541,1127,1
336,control,5.0,5,1,98.75679016113281,593.829870223999,859,1
337,control,6.0,5,1,100.01206398010254,394.6378231048584,1385,1
338,control,7.0,2,0,98.53172302246094,1682.1048259735107,902,1
339,control,8.0,5,0,196.2871551513672,921.7453002929688,1477,1
340,control,9.0,5,1,98.54006767272949,978.626012802124,1085,1
341,control,10.0,5,1,99.29776191711426,604.1369438171387,1042,1
342,control,11.0,2,1,789.8280620574951,789.8249626159668,1170,1
343,control,12.0,8,1,594.012975692749,594.0110683441162,1401,1
344,control,13.0,8,0,1098.6409187316895,1098.6371040344238,1180,1
345,control,14.0,2,0,987.8959655761719,987.8940582275391,905,1
346,control,15.0,12,1,601.862907409668,601.8600463867188,1047,1
347,control,16.0,14,1,591.8629169464111,591.8619632720947,1392,1
348,control,17.0,18,0,397.3400592803955,397.3400592803955,1348,1
349,control,18.0,8,1,493.93391609191895,493.93200874328613,1353,1
350,control,19.0,8,0,988.6279106140137,988.6279106140137,1211,1
351,control,20.0,8,1,593.9750671386719,593.9741134643555,824,1
352,control,21.0,11,1,1121.8349933624268,1121.833086013794,1417,1
353,control,22.0,15,1,624.34983253479,624.3481636047363,987,1
354,control,23.0,2,0,892.6100730895996,892.6079273223877,904,1
355,control,24.0,9,0,504.1618347167969,504.15992736816406,1129,1
356,control,25.0,11,0,1221.7159271240234,1221.7142581939697,1382,1
357,control,26.0,15,0,1230.3869724273682,1230.3788661956787,863,1
358,control,5.0,5,1,96.82512283325195,489.7041320800781,1069,1
359,control,6.0,5,0,97.8078842163086,584.5067501068115,1283,1
360,control,7.0,5,1,627.1607875823975,627.1586418151855,863,1
361,control,8.0,8,1,781.231164932251,781.2299728393555,1090,1
362,control,9.0,5,1,294.4786548614502,780.4968357086182,958,1
363,control,10.0,5,1,484.2240810394287,484.2233657836914,1184,1
364,control,11.0,1,0,2814.00990486145,2814.0079975128174,959,1
365,control,12.0,6,1,98.81186485290527,2120.8231449127197,859,1
366,control,13.0,9,1,494.77601051330566,494.77410316467285,1474,1
367,control,14.0,5,1,691.648006439209,691.6460990905762,1354,1
368,control,15.0,12,1,626.0950565338135,626.0941028594971,838,1
369,control,16.0,14,1,690.7551288604736,690.7508373260498,838,1
370,control,17.0,19,1,493.50500106811523,493.5028553009033,997,1
371,control,18.0,8,1,494.4801330566406,494.4791793823242,802,1
372,control,19.0,9,1,394.44804191589355,394.44518089294434,956,1
373,control,20.0,6,0,2069.4382190704346,2069.437026977539,833,1
374,control,21.0,11,1,495.3300952911377,495.32413482666016,861,1
375,control,22.0,15,1,496.16217613220215,496.1581230163574,1444,1
376,control,23.0,5,0,891.3531303405762,891.3519382476807,872,0
377,control,23.0,5,0,1284.3728065490723,1284.3708992004395,1132,1
378,control,24.0,11,1,492.51818656921387,492.51508712768555,1471,1
379,control,25.0,12,1,494.10200119018555,494.0929412841797,1436,0
380,control,25.0,12,1,682.0189952850342,682.0180416107178,812,1
381,control,26.0,16,1,724.694013595581,724.6930599212646,812,1
1,quadbright,5.0,20,1,98.72007369995117,592.289924621582,1104,1
2,quadbright,6.0,20,1,98.35696220397949,1087.876796722412,974,1
3,quadbright,7.0,20,1,99.65085983276367,493.1678771972656,1246,1
4,quadbright,8.0,20,1,627.8738975524902,627.8707981109619,1477,1
5,quadbright,9.0,20,1,495.136022567749,495.12791633605957,964,1
6,quadbright,10.0,20,1,594.6869850158691,594.6860313415527,1331,1
7,quadbright,11.0,20,1,495.17202377319336,495.17107009887695,1233,1
8,quadbright,12.0,20,1,988.9612197875977,988.9612197875977,1272,1
9,quadbright,13.0,20,1,690.4518604278564,690.4430389404297,872,1
10,quadbright,14.0,20,1,505.5210590362549,505.51486015319824,1129,1
11,quadbright,15.0,20,1,593.7750339508057,593.7719345092773,1126,1
12,quadbright,16.0,20,1,693.6900615692139,693.6891078948975,1393,1
13,quadbright,17.0,20,1,725.5768775939941,725.5699634552002,1182,1
14,quadbright,18.0,20,1,625.6599426269531,625.6539821624756,873,1
15,quadbright,19.0,20,1,683.9227676391602,683.9218139648438,929,1
16,quadbright,20.0,20,0,1188.4090900421143,1188.4071826934814,1361,1
17,quadbright,21.0,20,1,688.8937950134277,688.8887882232666,1456,1
18,quadbright,22.0,20,1,692.6679611206055,692.6660537719727,1151,1
19,quadbright,23.0,20,1,922.4379062652588,922.4309921264648,1415,1
20,quadbright,24.0,20,1,690.6411647796631,690.6390190124512,1419,1
21,quadbright,25.0,20,1,1084.536075592041,1084.5351219177246,1231,1
22,quadbright,26.0,20,1,1582.632064819336,1582.6292037963867,955,1
23,quadbright,27.0,20,1,1296.4320182800293,1296.4258193969727,1168,1
24,quadbright,28.0,20,1,1121.013879776001,1121.0100650787354,1110,0
25,quadbright,28.0,20,1,1517.8768634796143,1517.8749561309814,952,1
26,quadbright,29.0,20,0,1614.9938106536865,1614.988088607788,1051,1
27,quadbright,30.0,20,0,691.8339729309082,691.8320655822754,928,1
28,quadbright,5.0,20,1,99.50590133666992,691.9958591461182,807,1
29,quadbright,6.0,20,1,98.55794906616211,494.6308135986328,1467,1
30,quadbright,7.0,20,1,98.62089157104492,494.473934173584,1041,1
31,quadbright,8.0,20,1,494.6589469909668,494.6577548980713,965,1
32,quadbright,9.0,20,1,534.2741012573242,534.271240234375,1010,1
33,quadbright,10.0,20,1,725.1660823822021,725.1648902893066,1234,1
34,quadbright,11.0,20,1,526.1881351470947,526.1871814727783,976,1
35,quadbright,12.0,20,1,638.7629508972168,638.7588977813721,1145,1
36,quadbright,13.0,20,1,623.9638328552246,623.9588260650635,1191,1
37,quadbright,14.0,20,1,633.9499950408936,633.944034576416,1470,1
38,quadbright,15.0,20,1,583.0888748168945,583.0879211425781,810,1
39,quadbright,16.0,20,1,603.3468246459961,603.3411026000977,980,1
40,quadbright,17.0,20,1,493.9577579498291,493.9537048339844,1354,1
41,quadbright,18.0,20,1,724.4729995727539,724.4682312011719,904,1
42,quadbright,19.0,20,1,692.3079490661621,692.3031806945801,1159,1
43,quadbright,20.0,23,1,693.1440830230713,693.1419372558594,1005,1
44,quadbright,21.0,20,0,1088.8090133666992,1088.808298110962,949,1
45,quadbright,22.0,20,1,725.3239154815674,725.3210544586182,1225,1
46,quadbright,23.0,20,1,693.8998699188232,693.897008895874,1270,1
47,quadbright,24.0,20,1,691.4389133453369,691.4350986480713,1093,1
48,quadbright,25.0,20,1,603.1012535095215,603.0993461608887,1012,1
49,quadbright,26.0,20,0,2606.459856033325,2606.451988220215,1465,1
50,quadbright,27.0,20,1,592.606782913208,592.5958156585693,1370,1
51,quadbright,28.0,20,1,594.0899848937988,594.0883159637451,1236,1
52,quadbright,29.0,23,1,889.6851539611816,889.6820545196533,1364,1
53,quadbright,30.0,23,0,592.2479629516602,592.2448635101318,994,1
54,quadbright,5.0,17,1,131.00695610046387,526.2322425842285,934,1
55,quadbright,6.0,17,1,98.71602058410645,594.15602684021,811,1
56,quadbright,7.0,17,1,99.00116920471191,693.0451393127441,1280,1
57,quadbright,8.0,17,1,97.88703918457031,592.9520130157471,1278,1
58,quadbright,9.0,17,1,494.80509757995605,494.80390548706055,1318,1
59,quadbright,10.0,17,1,494.6720600128174,494.67015266418457,1113,1
60,quadbright,11.0,17,1,98.71792793273926,593.2929515838623,929,1
61,quadbright,12.0,17,1,494.39287185668945,494.39096450805664,1310,1
62,quadbright,13.0,17,1,633.8787078857422,633.875846862793,1313,1
63,quadbright,14.0,17,1,483.4730625152588,483.4721088409424,938,1
64,quadbright,15.0,17,1,593.9939022064209,593.9886569976807,1081,1
65,quadbright,16.0,17,1,724.9879837036133,724.9860763549805,1187,1
66,quadbright,17.0,17,1,635.0758075714111,635.0688934326172,1195,1
67,quadbright,18.0,17,1,591.3290977478027,591.3252830505371,943,1
68,quadbright,19.0,17,1,483.3049774169922,483.3040237426758,1032,1
69,quadbright,20.0,23,1,495.2199459075928,495.21899223327637,1492,1
70,quadbright,21.0,23,1,493.0129051208496,493.00599098205566,1136,1
71,quadbright,22.0,17,1,493.15881729125977,493.15667152404785,1079,1
72,quadbright,23.0,17,1,503.9219856262207,503.9191246032715,1294,1
73,quadbright,24.0,17,1,591.223955154419,591.217041015625,1150,1
74,quadbright,25.0,17,1,494.398832321167,494.3981170654297,1195,1
75,quadbright,26.0,23,1,594.0892696380615,594.0871238708496,971,1
76,quadbright,27.0,17,1,494.5862293243408,494.5852756500244,1022,1
77,quadbright,28.0,17,1,692.5487518310547,692.5418376922607,1064,1
78,quadbright,29.0,23,0,692.6498413085938,692.6488876342773,1420,1
79,quadbright,30.0,26,0,990.2100563049316,990.2091026306152,1331,1
80,quadbright,5.0,17,1,96.44126892089844,495.18799781799316,1221,1
81,quadbright,6.0,17,1,98.62709045410156,493.05200576782227,1029,1
82,quadbright,7.0,17,1,98.98209571838379,494.7681427001953,1097,1
83,quadbright,8.0,17,1,583.078145980835,583.0771923065186,1437,1
84,quadbright,9.0,17,1,98.99640083312988,503.7240982055664,967,1
85,quadbright,10.0,17,1,494.9040412902832,494.9002265930176,1023,1
86,quadbright,11.0,17,1,385.911226272583,385.9100341796875,865,1
87,quadbright,12.0,17,1,694.2629814147949,694.2610740661621,1491,1
88,quadbright,13.0,17,1,533.9548587799072,533.951997756958,911,1
89,quadbright,14.0,17,1,622.8771209716797,622.8752136230469,860,1
90,quadbright,15.0,17,1,527.4538993835449,527.4529457092285,1341,1
91,quadbright,16.0,17,1,594.1376686096191,594.127893447876,1423,1
92,quadbright,17.0,17,1,594.2339897155762,594.2330360412598,1397,1
93,quadbright,18.0,17,1,680.5088520050049,680.5081367492676,1246,1
94,quadbright,19.0,17,1,504.9121379852295,504.9099922180176,836,1
95,quadbright,20.0,20,1,504.57072257995605,504.565954208374,1084,1
96,quadbright,21.0,23,1,495.32198905944824,495.3131675720215,991,1
97,quadbright,22.0,17,1,601.4158725738525,601.4120578765869,1118,1
98,quadbright,23.0,17,1,493.67594718933105,493.671178817749,1345,1
99,quadbright,24.0,17,1,790.5187606811523,790.5149459838867,1062,1
100,quadbright,25.0,17,1,1089.7877216339111,1089.7858142852783,1031,1
101,quadbright,26.0,23,1,592.3862457275391,592.3810005187988,1026,1
102,quadbright,27.0,17,1,791.0799980163574,791.0778522491455,862,1
103,quadbright,28.0,17,0,692.6510334014893,692.6441192626953,1228,1
104,quadbright,29.0,26,0,494.5371150970459,494.534969329834,1013,1
105,quadbright,30.0,29,0,1480.7701110839844,1480.7651042938232,1488,1
106,quadbright,5.0,14,1,98.84381294250488,393.6629295349121,911,1
107,quadbright,6.0,14,1,98.18863868713379,484.32278633117676,879,1
108,quadbright,7.0,14,1,100.19469261169434,395.953893661499,1206,1
109,quadbright,8.0,14,1,98.80614280700684,397.0310688018799,1482,1
110,quadbright,9.0,14,1,493.41702461242676,493.41487884521484,1479,1
111,quadbright,10.0,14,1,400.6779193878174,400.67386627197266,1367,1
112,quadbright,11.0,14,1,394.3219184875488,394.3159580230713,1294,1
113,quadbright,12.0,14,1,932.934045791626,932.9290390014648,923,1
114,quadbright,13.0,14,1,790.3831005096436,790.3778553009033,1237,1
115,quadbright,14.0,14,1,592.4160480499268,592.4129486083984,997,1
116,quadbright,15.0,14,1,495.1300621032715,495.1281547546387,1082,1
117,quadbright,16.0,14,1,790.3988361358643,790.3969287872314,1341,1
118,quadbright,17.0,14,1,494.05908584594727,494.05598640441895,1205,1
119,quadbright,18.0,14,1,486.4788055419922,486.4766597747803,1413,1
120,quadbright,19.0,14,1,493.3900833129883,493.38388442993164,956,1
121,quadbright,20.0,20,1,493.743896484375,493.73912811279297,1088,1
122,quadbright,21.0,21,1,494.74096298217773,494.7400093078613,1480,1
123,quadbright,22.0,14,1,794.3673133850098,794.3642139434814,1097,1
124,quadbright,23.0,14,1,494.39096450805664,494.3859577178955,1139,1
125,quadbright,24.0,14,0,593.72878074646,593.7280654907227,1121,1
126,quadbright,25.0,14,1,991.473913192749,991.4727210998535,1206,1
127,quadbright,26.0,21,1,492.19679832458496,492.19202995300293,870,1
128,quadbright,27.0,14,0,1079.6258449554443,1079.624891281128,1375,1
129,quadbright,28.0,20,1,692.0456886291504,692.0437812805176,1125,1
130,quadbright,29.0,27,0,1474.5819568634033,1474.5819568634033,1397,1
131,quadbright,30.0,30,1,979.34889793396,979.3469905853271,858,1
132,quadbright,5.0,14,1,97.92113304138184,492.6190376281738,1489,1
133,quadbright,6.0,14,1,100.12006759643555,494.4891929626465,1077,1
134,quadbright,7.0,14,1,503.4189224243164,503.4141540527344,1361,1
135,quadbright,8.0,14,1,494.8749542236328,494.8718547821045,1039,1
136,quadbright,9.0,14,1,494.20714378356934,494.2059516906738,1115,1
137,quadbright,10.0,14,1,491.62888526916504,491.62793159484863,1249,1
138,quadbright,11.0,14,1,205.826997756958,504.4081211090088,1307,1
139,quadbright,12.0,14,1,526.1790752410889,526.1778831481934,1447,1
140,quadbright,13.0,14,1,724.8368263244629,724.8280048370361,920,1
141,quadbright,14.0,14,1,492.34485626220703,492.3429489135742,807,1
142,quadbright,15.0,14,1,1177.6020526885986,1177.6020526885986,1201,1
143,quadbright,16.0,14,1,492.2449588775635,492.23971366882324,934,1
144,quadbright,17.0,14,1,494.5180416107178,494.51589584350586,1374,1
145,quadbright,18.0,14,1,495.00203132629395,495.00012397766113,1023,1
146,quadbright,19.0,14,1,493.41607093811035,493.41297149658203,1066,1
147,quadbright,20.0,17,1,495.47696113586426,495.47696113586426,1234,1
148,quadbright,21.0,21,1,493.47877502441406,493.47591400146484,1044,1
149,quadbright,22.0,14,1,493.92008781433105,493.91841888427734,1348,1
150,quadbright,23.0,14,1,625.4220008850098,625.4110336303711,1184,1
151,quadbright,24.0,17,1,492.8457736968994,492.8419589996338,1207,1
152,quadbright,25.0,14,1,785.0239276885986,785.0229740142822,907,1
153,quadbright,26.0,21,1,588.66286277771,588.6619091033936,1163,1
154,quadbright,27.0,17,0,1018.2950496673584,1018.2888507843018,806,1
155,quadbright,28.0,20,0,592.5800800323486,592.5760269165039,1439,1
156,quadbright,29.0,29,0,823.8017559051514,823.7960338592529,1427,1
157,quadbright,30.0,30,1,702.4028301239014,702.3990154266357,1398,1
158,quadbright,5.0,11,1,99.75028038024902,396.1751461029053,1239,1
159,quadbright,6.0,11,1,98.54412078857422,396.0580825805664,1140,1
160,quadbright,7.0,11,1,99.1981029510498,494.8239326477051,1369,1
161,quadbright,8.0,11,1,494.4300651550293,494.4262504577637,1064,1
162,quadbright,9.0,11,1,98.72889518737793,493.81494522094727,966,1
163,quadbright,10.0,11,1,492.28596687316895,492.2821521759033,1344,1
164,quadbright,11.0,11,1,503.7050247192383,503.69811058044434,1313,1
165,quadbright,12.0,11,1,494.1058158874512,494.09985542297363,960,1
166,quadbright,13.0,11,1,594.2158699035645,594.214916229248,1459,1
167,quadbright,14.0,11,1,592.9007530212402,592.8928852081299,1036,0
168,quadbright,14.0,11,1,502.1026134490967,502.10094451904297,956,1
169,quadbright,15.0,11,1,989.2771244049072,989.2728328704834,1268,1
170,quadbright,16.0,11,1,593.0299758911133,593.0240154266357,1109,1
171,quadbright,17.0,11,1,590.3689861297607,590.364933013916,803,1
172,quadbright,18.0,11,1,592.3488140106201,592.3457145690918,1474,1
173,quadbright,19.0,11,1,589.698076248169,589.6940231323242,851,1
174,quadbright,20.0,17,1,495.47600746154785,495.47290802001953,819,1
175,quadbright,21.0,20,1,602.3130416870117,602.3108959197998,1374,1
176,quadbright,22.0,11,1,2504.976987838745,2504.974842071533,862,1
177,quadbright,23.0,11,1,889.7960186004639,889.7929191589355,1329,1
178,quadbright,24.0,17,1,493.0429458618164,493.0391311645508,935,1
179,quadbright,25.0,11,1,880.8252811431885,880.824089050293,1112,1
180,quadbright,26.0,20,1,490.4441833496094,490.44299125671387,856,1
181,quadbright,27.0,20,1,593.2881832122803,593.2831764221191,873,1
182,quadbright,28.0,21,0,1000.0412464141846,1000.0371932983398,876,1
183,quadbright,29.0,30,0,683.5198402404785,683.5198402404785,924,1
184,quadbright,30.0,27,0,1681.457757949829,1681.452989578247,1196,1
185,quadbright,5.0,11,1,101.03178024291992,594.012975692749,1253,1
186,quadbright,6.0,11,1,98.83499145507812,493.32404136657715,874,1
187,quadbright,7.0,11,1,102.09298133850098,497.03288078308105,1416,1
188,quadbright,8.0,11,1,403.89108657836914,403.8829803466797,1109,1
189,quadbright,9.0,11,1,495.09572982788086,495.09477615356445,1401,1
190,quadbright,10.0,11,1,394.98329162597656,394.98019218444824,1331,1
191,quadbright,11.0,11,1,592.3199653625488,592.3192501068115,1152,1
192,quadbright,12.0,11,1,583.0719470977783,583.0709934234619,1364,1
193,quadbright,13.0,11,1,497.42794036865234,497.42603302001953,1094,1
194,quadbright,14.0,11,1,494.9951171875,494.99011039733887,1489,1
195,quadbright,15.0,11,1,494.20619010925293,494.2033290863037,1377,1
196,quadbright,16.0,11,1,504.8718452453613,504.8649311065674,1388,1
197,quadbright,17.0,11,1,691.9558048248291,691.9488906860352,1274,1
198,quadbright,18.0,11,1,495.2230453491211,495.2220916748047,1137,1
199,quadbright,19.0,11,1,495.1639175415039,495.1629638671875,807,1
200,quadbright,20.0,14,1,593.6338901519775,593.6329364776611,868,1
201,quadbright,21.0,20,1,597.9812145233154,597.9793071746826,1125,1
202,quadbright,22.0,11,1,494.9297904968262,494.92883682250977,1180,1
203,quadbright,23.0,11,1,626.4960765838623,626.4922618865967,969,1
204,quadbright,24.0,15,1,636.4798545837402,636.4738941192627,1420,1
205,quadbright,25.0,11,1,725.6360054016113,725.6350517272949,1272,1
206,quadbright,26.0,20,1,592.0581817626953,592.0562744140625,976,1
207,quadbright,27.0,20,1,494.2309856414795,494.2290782928467,1053,1
208,quadbright,28.0,23,0,582.862138748169,582.8611850738525,1113,0
209,quadbright,28.0,23,1,494.8000907897949,494.7969913482666,1499,1
210,quadbright,29.0,30,0,692.6681995391846,692.6610469818115,959,1
211,quadbright,30.0,30,0,593.6028957366943,593.595027923584,1051,1
212,quadbright,5.0,8,1,99.04718399047852,499.82309341430664,989,1
213,quadbright,6.0,8,1,99.10917282104492,494.65322494506836,1404,1
214,quadbright,7.0,8,1,100.59881210327148,504.47916984558105,1106,1
215,quadbright,8.0,8,1,203.65500450134277,637.9120349884033,1021,1
216,quadbright,9.0,8,1,626.0218620300293,626.0180473327637,1478,1
217,quadbright,10.0,8,1,527.0371437072754,527.0359516143799,922,1
218,quadbright,11.0,8,1,525.5639553070068,525.5498886108398,1084,1
219,quadbright,12.0,8,1,593.275785446167,593.2726860046387,918,1
220,quadbright,13.0,8,1,590.0371074676514,590.0371074676514,807,1
221,quadbright,14.0,8,1,493.06392669677734,493.060827255249,1216,1
222,quadbright,15.0,8,1,890.146017074585,890.1419639587402,1275,1
223,quadbright,16.0,8,1,496.2949752807617,496.2918758392334,842,1
224,quadbright,17.0,8,1,1285.844087600708,1285.837173461914,1024,1
225,quadbright,18.0,8,1,602.7271747589111,602.7240753173828,1316,1
226,quadbright,19.0,8,0,890.2928829193115,890.2919292449951,872,1
227,quadbright,20.0,14,1,493.38793754577637,493.38603019714355,1446,1
228,quadbright,21.0,18,1,625.9281635284424,625.927209854126,888,1
229,quadbright,22.0,8,1,1812.9441738128662,1812.941074371338,817,1
230,quadbright,23.0,8,0,998.9261627197266,998.9223480224609,886,1
231,quadbright,24.0,15,1,692.7642822265625,692.763090133667,1067,1
232,quadbright,25.0,8,0,1085.1597785949707,1085.1550102233887,833,1
233,quadbright,26.0,18,1,1197.633981704712,1197.6289749145508,1318,1
234,quadbright,27.0,18,0,593.7390327453613,593.7380790710449,1083,1
235,quadbright,28.0,23,1,596.9960689544678,596.994161605835,1077,1
236,quadbright,29.0,30,1,693.6929225921631,693.6838626861572,834,1
237,quadbright,30.0,30,1,593.6689376831055,593.6682224273682,1419,1
238,quadbright,5.0,8,1,199.03302192687988,527.6410579681396,923,1
239,quadbright,6.0,8,1,198.24481010437012,529.3357372283936,1366,1
240,quadbright,7.0,8,1,504.3017864227295,504.29272651672363,1294,1
241,quadbright,8.0,8,1,197.80302047729492,395.73192596435547,1382,1
242,quadbright,9.0,8,1,693.2899951934814,693.2899951934814,1045,1
243,quadbright,10.0,8,1,691.3959980010986,691.3940906524658,1334,1
244,quadbright,11.0,8,1,583.5988521575928,583.59694480896,1455,1
245,quadbright,12.0,8,1,495.71990966796875,495.7160949707031,840,1
246,quadbright,13.0,8,1,1187.1140003204346,1187.1099472045898,821,1
247,quadbright,14.0,8,0,824.1169452667236,824.1138458251953,1319,1
248,quadbright,15.0,8,0,735.6259822845459,735.623836517334,865,1
249,quadbright,16.0,8,1,1223.3808040618896,1223.3779430389404,1359,1
250,quadbright,17.0,8,1,593.8911437988281,593.8899517059326,1088,1
251,quadbright,18.0,8,1,594.228982925415,594.2227840423584,1173,1
252,quadbright,19.0,11,0,986.9019985198975,986.8969917297363,1225,1
253,quadbright,20.0,11,0,919.8639392852783,919.8589324951172,1442,1
254,quadbright,21.0,18,1,637.1700763702393,637.1588706970215,1436,1
255,quadbright,22.0,8,1,789.8359298706055,789.8290157318115,1188,1
256,quadbright,23.0,11,1,592.7078723907471,592.7050113677979,1460,1
257,quadbright,24.0,14,1,691.2930011749268,691.2908554077148,885,1
258,quadbright,25.0,11,0,1214.8888111114502,1214.888095855713,946,1
259,quadbright,26.0,18,1,783.0889225006104,783.0867767333984,1246,1
260,quadbright,27.0,20,1,494.0609931945801,494.05384063720703,855,1
261,quadbright,28.0,22,0,790.736198425293,790.729284286499,1024,1
262,quadbright,29.0,30,0,790.1639938354492,790.1623249053955,1008,1
263,quadbright,30.0,30,0,783.0159664154053,783.0147743225098,1210,1
264,quadbright,5.0,5,1,101.81283950805664,396.6059684753418,937,1
265,quadbright,6.0,5,1,98.87480735778809,494.765043258667,1486,1
266,quadbright,7.0,5,1,99.43199157714844,494.20905113220215,1399,1
267,quadbright,8.0,5,1,99.15328025817871,501.89900398254395,1376,1
268,quadbright,9.0,5,0,695.1661109924316,695.1632499694824,1306,1
269,quadbright,10.0,5,1,99.3647575378418,1019.6590423583984,972,1
270,quadbright,11.0,5,0,998.7776279449463,998.7750053405762,1456,1
271,quadbright,12.0,5,0,900.8450508117676,900.8429050445557,873,1
272,quadbright,13.0,5,1,791.8539047241211,791.8479442596436,882,1
273,quadbright,14.0,11,1,494.128942489624,494.1258430480957,1353,1
274,quadbright,15.0,11,1,98.71888160705566,505.537748336792,1498,1
275,quadbright,16.0,5,0,1476.0198593139648,1476.0181903839111,844,1
276,quadbright,17.0,5,0,1416.0118103027344,1416.006088256836,985,1
277,quadbright,18.0,5,1,925.7559776306152,925.7528781890869,918,0
278,quadbright,18.0,5,0,818.1309700012207,818.1300163269043,944,1
279,quadbright,19.0,14,1,626.1119842529297,626.1110305786133,1213,1
280,quadbright,20.0,14,1,493.8828945159912,493.8809871673584,1235,1
281,quadbright,21.0,17,1,1086.5299701690674,1086.5240097045898,1329,1
282,quadbright,22.0,5,0,984.8978519439697,984.893798828125,1413,1
283,quadbright,23.0,11,1,893.0599689483643,893.0590152740479,1466,1
284,quadbright,24.0,14,1,593.2362079620361,593.2309627532959,1157,1
285,quadbright,25.0,14,0,1374.9499320983887,1374.9487400054932,1082,1
286,quadbright,26.0,17,1,691.6518211364746,691.6468143463135,1482,1
287,quadbright,27.0,20,1,1086.5299701690674,1086.526870727539,1053,1
288,quadbright,5.0,5,1,98.90103340148926,492.89608001708984,908,1
289,quadbright,6.0,5,0,98.24681282043457,1573.5070705413818,1130,1
290,quadbright,7.0,5,1,296.9708442687988,692.9628849029541,1310,1
291,quadbright,8.0,5,1,98.71411323547363,690.4339790344238,804,1
292,quadbright,9.0,8,1,493.3159351348877,493.3149814605713,1158,1
293,quadbright,10.0,5,1,1407.2997570037842,1407.2988033294678,816,1
294,quadbright,11.0,8,1,493.4530258178711,493.4520721435547,1034,1
295,quadbright,12.0,8,1,593.9509868621826,593.9450263977051,1115,1
296,quadbright,13.0,5,1,1219.9840545654297,1219.9828624725342,1263,1
297,quadbright,14.0,11,1,592.3609733581543,592.3528671264648,969,1
298,quadbright,15.0,11,1,1111.6809844970703,1111.680030822754,1320,1
299,quadbright,16.0,8,0,1122.128963470459,1122.1210956573486,1397,1
300,quadbright,17.0,8,1,605.1101684570312,605.1080226898193,1056,1
301,quadbright,18.0,8,1,595.1869487762451,595.1850414276123,1110,1
302,quadbright,19.0,14,1,594.2392349243164,594.23828125,1298,1
303,quadbright,20.0,14,1,1121.3979721069336,1121.3908195495605,832,1
304,quadbright,21.0,17,1,692.6798820495605,692.678689956665,1471,1
305,quadbright,22.0,8,0,791.5031909942627,791.5000915527344,1080,1
306,quadbright,23.0,9,1,691.4739608764648,691.4718151092529,890,1
307,quadbright,24.0,12,1,603.0449867248535,603.0418872833252,861,1
308,quadbright,25.0,17,1,2905.731678009033,2905.729055404663,1359,1
309,quadbright,26.0,17,1,813.9841556549072,813.9841556549072,1447,1
310,quadbright,27.0,19,1,691.2848949432373,691.2779808044434,1331,1
311,quadbright,5.0,2,1,101.6077995300293,1284.742832183838,914,1
312,quadbright,6.0,8,1,99.60317611694336,494.02499198913574,1076,1
313,quadbright,7.0,2,1,1376.4889240264893,1376.4879703521729,828,1
314,quadbright,8.0,2,1,198.05073738098145,1209.8586559295654,1091,1
315,quadbright,9.0,8,1,725.6720066070557,725.6689071655273,876,1
316,quadbright,10.0,2,1,198.38881492614746,881.2689781188965,1046,1
317,quadbright,11.0,8,1,594.0690040588379,594.0649509429932,1017,1
318,quadbright,12.0,8,1,494.9619770050049,494.95601654052734,1209,1
319,quadbright,13.0,2,1,683.3782196044922,683.3772659301758,1009,1
320,quadbright,14.0,9,1,494.9178695678711,494.91310119628906,1446,1
321,quadbright,15.0,9,1,598.2966423034668,598.2887744903564,1373,1
322,quadbright,16.0,11,1,584.4311714172363,584.4290256500244,993,1
323,quadbright,17.0,8,1,595.2129364013672,595.2098369598389,1244,1
324,quadbright,18.0,8,1,593.6460494995117,593.6450958251953,1491,1
325,quadbright,19.0,12,1,493.96800994873047,493.96514892578125,1197,1
326,quadbright,20.0,12,1,527.4779796600342,527.4748802185059,1189,1
327,quadbright,21.0,15,1,493.5488700866699,493.5448169708252,826,1
328,quadbright,22.0,11,1,635.523796081543,635.5218887329102,1188,1
329,quadbright,23.0,9,1,816.3261413574219,816.3251876831055,824,1
330,quadbright,24.0,12,1,792.2539710998535,792.2420501708984,905,1
331,quadbright,25.0,17,1,1605.4987907409668,1605.4978370666504,816,1
332,quadbright,26.0,15,0,792.0119762420654,792.0098304748535,988,1
333,quadbright,27.0,19,1,1118.6292171478271,1118.6180114746094,1128,1
334,quadbright,5.0,2,0,899.4760513305664,899.4688987731934,1432,1
335,quadbright,6.0,8,0,99.07889366149902,501.7538070678711,844,1
336,quadbright,7.0,2,0,191.00189208984375,4721.8358516693115,801,1
337,quadbright,8.0,2,1,98.14190864562988,890.437126159668,1202,1
338,quadbright,9.0,6,0,98.79231452941895,694.3869590759277,1478,1
339,quadbright,10.0,2,0,2716.784954071045,2716.782808303833,1000,1
340,quadbright,11.0,6,0,1274.9981880187988,1274.9969959259033,1424,1
341,quadbright,12.0,6,0,101.31478309631348,3012.6137733459473,989,1
342,quadbright,13.0,2,0,2703.822135925293,2703.8159370422363,897,1
343,quadbright,14.0,9,1,491.1041259765625,491.1010265350342,937,1
344,quadbright,15.0,9,1,1111.0756397247314,1111.0737323760986,1435,1
345,quadbright,16.0,11,1,681.4780235290527,681.4770698547363,1431,1
346,quadbright,17.0,6,1,1079.6220302581787,1079.6210765838623,1425,1
347,quadbright,18.0,6,1,1526.473045349121,1526.4708995819092,1165,1
348,quadbright,19.0,12,1,493.8821792602539,493.8790798187256,1212,1
349,quadbright,20.0,12,1,593.7709808349609,593.7681198120117,1047,1
350,quadbright,21.0,15,1,395.59078216552734,395.58982849121094,853,1
351,quadbright,22.0,11,1,498.0018138885498,497.999906539917,1148,1
352,quadbright,23.0,8,1,692.9728984832764,692.9678916931152,1486,1
353,quadbright,24.0,11,1,880.5651664733887,880.5639743804932,1203,1
354,quadbright,25.0,15,1,691.7951107025146,691.7929649353027,1218,1
355,quadbright,26.0,17,1,700.9811401367188,700.9782791137695,1424,1
356,quadbright,27.0,18,1,504.49395179748535,504.4898986816406,1086,1
357,quadbright,5.0,5,1,497.36809730529785,497.36499786376953,1428,1
358,quadbright,6.0,9,1,493.20387840270996,493.20220947265625,865,1
359,quadbright,7.0,5,1,498.86608123779297,498.86417388916016,909,1
360,quadbright,8.0,1,1,98.9990234375,1386.017084121704,1212,1
361,quadbright,9.0,8,1,98.96183013916016,492.82193183898926,1159,1
362,quadbright,10.0,5,1,99.46227073669434,498.5542297363281,1243,1
363,quadbright,11.0,8,1,493.865966796875,493.86096000671387,1459,1
364,quadbright,12.0,8,1,603.2259464263916,603.2230854034424,1209,1
365,quadbright,13.0,5,1,892.4329280853271,892.4310207366943,1491,1
366,quadbright,14.0,8,1,495.25904655456543,495.2569007873535,1036,1
367,quadbright,15.0,8,1,494.17781829833984,494.1749572753906,890,1
368,quadbright,16.0,9,1,491.9109344482422,491.90521240234375,929,1
369,quadbright,17.0,6,0,888.9479637145996,888.944149017334,1249,0
370,quadbright,17.0,6,0,793.5678958892822,793.5659885406494,1211,1
371,quadbright,18.0,6,1,695.310115814209,695.3089237213135,970,1
372,quadbright,19.0,11,1,484.8461151123047,484.8451614379883,830,1
373,quadbright,20.0,11,1,492.53106117248535,492.52891540527344,1223,1
374,quadbright,21.0,14,1,593.8880443572998,593.8870906829834,1298,1
375,quadbright,22.0,9,0,978.6179065704346,978.6169528961182,1036,1
376,quadbright,23.0,8,0,625.6968975067139,625.6880760192871,877,1
377,quadbright,24.0,11,0,912.6217365264893,912.6207828521729,805,1
378,quadbright,25.0,15,1,979.9928665161133,979.992151260376,1232,1
379,quadbright,26.0,17,1,979.9940586090088,979.9940586090088,1349,1
