trial,condition,eccentricity,magnitude,correct,srt_ms,keyboard_rt_ms,pre_change_ms,valid
1,control,5.0,20,1,98.9530086517334,493.0109977722168,995,1
2,control,6.0,20,1,97.14889526367188,524.4460105895996,1324,1
3,control,7.0,20,1,396.20518684387207,396.20423316955566,1330,1
4,control,8.0,20,1,99.23720359802246,593.2121276855469,891,1
5,control,9.0,20,1,698.5118389129639,698.509931564331,999,1
6,control,10.0,20,1,394.62900161743164,394.6259021759033,1387,1
7,control,11.0,20,1,392.63224601745605,392.63010025024414,1177,1
8,control,12.0,20,1,396.43406867980957,396.43001556396484,1032,1
9,control,13.0,20,1,394.7591781616211,394.75011825561523,1488,1
10,control,14.0,20,1,396.2979316711426,396.2900638580322,1401,1
11,control,15.0,20,1,496.2341785430908,496.2201118469238,1010,1
12,control,16.0,20,1,493.4351444244385,493.43109130859375,1011,1
13,control,17.0,20,1,494.48704719543457,494.48490142822266,1369,1
14,control,18.0,20,1,493.5910701751709,493.58606338500977,1335,1
15,control,19.0,20,1,494.0531253814697,494.0462112426758,844,1
16,control,20.0,20,1,494.4140911102295,494.40908432006836,1241,1
17,control,21.0,20,1,393.56017112731934,393.5549259185791,836,1
18,control,22.0,20,1,493.9570426940918,493.94893646240234,981,1
19,control,23.0,20,1,527.616024017334,527.6131629943848,954,1
20,control,24.0,20,1,496.0148334503174,496.01006507873535,1401,1
21,control,25.0,20,1,394.6709632873535,394.66309547424316,1136,1
22,control,26.0,20,1,493.5417175292969,493.53790283203125,1331,1
23,control,27.0,20,1,787.0891094207764,787.0872020721436,847,1
24,control,28.0,20,1,490.80705642700195,490.8030033111572,922,1
25,control,29.0,20,1,491.47915840148926,491.47534370422363,824,1
26,control,30.0,20,1,493.52097511291504,493.5181140899658,882,1
27,control,5.0,20,1,101.05085372924805,392.9719924926758,1341,1
28,control,6.0,20,1,97.46694564819336,493.69001388549805,1069,1
29,control,7.0,20,1,100.3415584564209,429.0597438812256,1404,1
30,control,8.0,20,1,519.5939540863037,519.5918083190918,1097,1
31,control,9.0,20,1,394.61398124694824,394.6061134338379,1234,1
32,control,10.0,20,1,488.2168769836426,488.21473121643066,1362,1
33,control,11.0,20,1,494.614839553833,494.6119785308838,952,1
34,control,12.0,20,1,494.45486068725586,494.45104598999023,1150,1
35,control,13.0,20,1,494.75693702697754,494.7466850280762,1008,1
36,control,14.0,20,1,493.59583854675293,493.5939311981201,883,1
37,control,15.0,20,1,495.22900581359863,495.2268600463867,1463,1
38,control,16.0,20,1,494.0211772918701,494.01211738586426,865,1
39,control,17.0,20,1,394.5581912994385,394.55604553222656,1295,1
40,control,18.0,20,1,427.7920722961426,427.78921127319336,1276,1
41,control,19.0,20,1,428.009033203125,428.0059337615967,1002,1
42,control,20.0,20,1,525.4299640655518,525.425910949707,1378,1
43,control,21.0,20,1,393.3277130126953,393.3229446411133,1203,1
44,control,22.0,20,1,493.0920600891113,493.0860996246338,1087,1
45,control,23.0,20,1,492.2358989715576,492.2311305999756,860,1
46,control,24.0,20,1,492.72608757019043,492.7217960357666,952,1
47,control,25.0,20,1,395.0982093811035,395.0960636138916,1439,1
48,control,26.0,20,1,494.56787109375,494.5662021636963,1468,1
49,control,27.0,20,1,988.4331226348877,988.429069519043,865,1
50,control,28.0,20,1,493.36791038513184,493.3629035949707,980,1
51,control,29.0,20,1,533.5249900817871,533.5230827331543,1225,1
52,control,30.0,20,1,494.8160648345947,494.8081970214844,936,1
53,control,5.0,17,1,98.68311882019043,494.57597732543945,922,1
54,control,6.0,17,1,99.2739200592041,494.265079498291,1453,1
55,control,7.0,17,1,97.47195243835449,426.3789653778076,1280,1
56,control,8.0,17,1,394.87600326538086,394.8678970336914,1340,1
57,control,9.0,17,1,397.0959186553955,397.08876609802246,1252,1
58,control,10.0,17,1,393.65506172180176,393.65243911743164,802,1
59,control,11.0,17,1,494.5821762084961,494.5800304412842,992,1
60,control,12.0,17,1,395.13707160949707,395.13611793518066,1005,1
61,control,13.0,17,1,1680.1049709320068,1680.0992488861084,989,1
62,control,14.0,17,1,692.2967433929443,692.2941207885742,1426,1
63,control,15.0,17,1,392.3969268798828,392.3938274383545,842,1
64,control,16.0,17,1,494.5111274719238,494.5080280303955,1067,1
65,control,17.0,17,1,500.4098415374756,500.4076957702637,1006,1
66,control,18.0,17,1,627.6729106903076,627.669095993042,1321,1
67,control,19.0,17,1,493.7589168548584,493.75414848327637,1025,1
68,control,20.0,17,1,393.9809799194336,393.97406578063965,1416,1
69,control,21.0,17,1,495.4688549041748,495.4657554626465,959,1
70,control,22.0,17,1,495.1977729797363,495.1949119567871,959,1
71,control,23.0,17,1,494.1248893737793,494.11916732788086,891,1
72,control,24.0,17,1,593.5492515563965,593.5449600219727,931,1
73,control,25.0,17,1,396.1348533630371,396.1310386657715,1228,1
74,control,26.0,17,1,493.98303031921387,493.98016929626465,1046,1
75,control,27.0,17,1,494.50087547302246,494.49610710144043,916,1
76,control,28.0,17,1,528.4500122070312,528.4461975097656,1045,1
77,control,29.0,17,1,598.2730388641357,598.268985748291,1276,1
78,control,30.0,17,1,523.212194442749,523.2110023498535,1273,1
79,control,5.0,17,1,296.0491180419922,393.26930046081543,1367,1
80,control,6.0,17,1,97.66197204589844,394.7629928588867,1390,1
81,control,7.0,17,1,1119.490146636963,1119.4839477539062,1296,1
82,control,8.0,17,1,991.4658069610596,991.4627075195312,1274,1
83,control,9.0,17,1,396.88801765441895,396.8849182128906,1009,1
84,control,10.0,17,1,390.5527591705322,390.5518054962158,1309,1
85,control,11.0,17,1,494.7671890258789,494.765043258667,1236,1
86,control,12.0,17,1,492.5680160522461,492.5651550292969,1480,1
87,control,13.0,17,1,495.9249496459961,495.9230422973633,1139,1
88,control,14.0,17,1,393.8930034637451,393.8889503479004,1284,1
89,control,15.0,17,1,493.89100074768066,493.88790130615234,1228,1
90,control,16.0,17,1,395.5068588256836,395.5042362213135,1369,1
91,control,17.0,17,1,393.9478397369385,393.94474029541016,1402,1
92,control,18.0,17,1,395.34497261047363,395.33114433288574,1157,1
93,control,19.0,17,1,394.4671154022217,394.46187019348145,975,1
94,control,20.0,17,1,493.46113204956055,493.4580326080322,920,1
95,control,21.0,17,1,494.91095542907715,494.90904808044434,1308,1
96,control,22.0,17,1,493.0529594421387,493.04890632629395,1357,1
97,control,23.0,17,1,494.33207511901855,494.3268299102783,880,1
98,control,24.0,17,1,493.12615394592285,493.12424659729004,1470,0
99,control,24.0,17,1,494.56787109375,494.5650100708008,963,1
100,control,25.0,17,0,989.3929958343506,989.3879890441895,886,1
101,control,26.0,17,1,623.3549118041992,623.3527660369873,1180,1
102,control,27.0,17,1,493.10898780822754,493.1058883666992,908,1
103,control,28.0,17,1,394.8180675506592,394.81592178344727,1176,1
104,control,29.0,17,1,395.3738212585449,395.3709602355957,894,1
105,control,30.0,17,1,493.82591247558594,493.8240051269531,866,1
106,control,5.0,14,1,99.36308860778809,592.4978256225586,1185,1
107,control,6.0,14,1,99.1971492767334,395.5671787261963,935,1
108,control,7.0,14,1,101.53603553771973,494.92573738098145,1210,1
109,control,8.0,14,1,427.81639099121094,427.8132915496826,1246,1
110,control,9.0,14,1,494.1399097442627,494.1368103027344,1481,1
111,control,10.0,14,1,394.7129249572754,394.70791816711426,1029,1
112,control,11.0,14,1,492.4030303955078,492.3992156982422,1391,1
113,control,12.0,14,1,393.77689361572266,393.77284049987793,1382,1
114,control,13.0,14,1,493.6990737915039,493.69287490844727,1460,1
115,control,14.0,14,1,395.3070640563965,395.30181884765625,959,1
116,control,15.0,14,1,495.04995346069336,495.04685401916504,1210,1
117,control,16.0,14,1,398.5610008239746,398.5588550567627,947,1
118,control,17.0,14,1,397.86791801452637,397.86529541015625,976,1
119,control,18.0,14,1,395.2970504760742,395.2929973602295,1063,1
120,control,19.0,14,1,495.6927299499512,495.68891525268555,1047,1
121,control,20.0,14,1,494.8718547821045,494.86780166625977,1023,1
122,control,21.0,14,1,395.9801197052002,395.97415924072266,1324,1
123,control,22.0,14,1,492.17891693115234,492.1720027923584,1008,1
124,control,23.0,14,1,493.88575553894043,493.8819408416748,1292,1
125,control,24.0,14,1,524.1439342498779,524.137020111084,1243,1
126,control,25.0,20,1,526.5989303588867,526.5939235687256,1194,1
127,control,26.0,14,1,394.4203853607178,394.41514015197754,1400,1
128,control,27.0,14,1,495.3279495239258,495.32413482666016,805,1
129,control,28.0,14,1,593.1811332702637,593.1792259216309,1387,1
130,control,29.0,14,1,593.3868885040283,593.3828353881836,1256,1
131,control,30.0,14,1,493.945837020874,493.9420223236084,935,1
132,control,5.0,14,1,100.47698020935059,694.4417953491211,1349,1
133,control,6.0,14,1,97.20396995544434,394.0088748931885,1282,1
134,control,7.0,14,1,99.36404228210449,395.44010162353516,1370,1
135,control,8.0,14,1,1418.0679321289062,1418.0619716644287,1228,1
136,control,9.0,14,1,426.8910884857178,426.88512802124023,1174,1
137,control,10.0,14,1,296.97394371032715,396.11220359802246,864,1
138,control,11.0,14,1,398.6837863922119,398.6775875091553,808,1
139,control,12.0,14,1,493.7329292297363,493.7310218811035,1002,1
140,control,13.0,14,1,395.1678276062012,395.1609134674072,1118,1
141,control,14.0,14,1,493.2217597961426,493.21913719177246,923,1
142,control,15.0,14,1,393.5220241546631,393.51701736450195,1323,1
143,control,16.0,14,1,493.7732219696045,493.7701225280762,1060,1
144,control,17.0,14,1,494.6742057800293,494.66800689697266,849,1
145,control,18.0,14,1,392.88878440856934,392.8849697113037,1451,1
146,control,19.0,14,1,393.3889865875244,393.3839797973633,823,1
147,control,20.0,14,1,393.5379981994629,393.5360908508301,1003,0
148,control,20.0,14,1,492.7811622619629,492.77806282043457,1084,1
149,control,21.0,14,1,294.95811462402344,294.950008392334,1243,1
150,control,22.0,14,1,394.2980766296387,394.29402351379395,1101,1
151,control,23.0,14,1,493.61300468444824,493.6108589172363,896,1
152,control,24.0,14,1,491.6388988494873,491.6348457336426,1117,1
153,control,25.0,20,1,494.3041801452637,494.30203437805176,1086,1
154,control,26.0,14,1,494.434118270874,494.4281578063965,1400,1
155,control,27.0,14,1,493.51978302001953,493.5159683227539,1354,1
156,control,28.0,14,1,1022.6619243621826,1022.6571559906006,1488,1
157,control,29.0,14,0,889.4541263580322,889.448881149292,1142,1
158,control,30.0,14,1,493.5600757598877,493.5579299926758,1283,1
159,control,5.0,11,1,99.80010986328125,394.60301399230957,1296,1
160,control,6.0,11,1,98.47331047058105,393.9239978790283,1224,1
161,control,7.0,11,1,98.24991226196289,492.9180145263672,1004,1
162,control,8.0,11,1,98.34003448486328,393.59188079833984,1399,1
163,control,9.0,11,1,396.01778984069824,396.0139751434326,1015,1
164,control,10.0,11,1,394.9880599975586,394.98400688171387,1331,1
165,control,11.0,11,1,494.5530891418457,494.5499897003174,1249,1
166,control,12.0,11,1,493.9277172088623,493.92199516296387,941,1
167,control,13.0,11,1,592.8127765655518,592.8046703338623,1254,1
168,control,14.0,11,1,494.3249225616455,494.3211078643799,1395,1
169,control,15.0,11,1,491.12606048583984,491.1212921142578,1206,1
170,control,16.0,11,1,691.8988227844238,691.8971538543701,842,1
171,control,17.0,11,1,494.54498291015625,494.5387840270996,1058,1
172,control,18.0,11,1,527.6570320129395,527.6510715484619,1128,1
173,control,19.0,11,1,494.1990375518799,494.19713020324707,1023,1
174,control,20.0,11,1,396.26002311706543,396.24810218811035,817,1
175,control,21.0,11,1,427.96993255615234,427.9639720916748,856,1
176,control,22.0,11,1,426.99599266052246,426.99289321899414,1479,1
177,control,23.0,11,1,394.4370746612549,394.43016052246094,1380,1
178,control,24.0,11,1,492.27070808410645,492.26903915405273,1466,1
179,control,25.0,18,1,394.8988914489746,394.89197731018066,1267,1
180,control,26.0,11,0,789.9978160858154,789.9940013885498,1116,1
181,control,27.0,11,1,393.4478759765625,393.4438228607178,1393,1
182,control,28.0,11,1,889.7678852081299,889.7590637207031,812,1
183,control,29.0,17,1,492.966890335083,492.9618835449219,1455,1
184,control,30.0,11,0,692.3539638519287,692.3520565032959,1141,1
185,control,5.0,11,1,99.32279586791992,494.7338104248047,1009,1
186,control,6.0,11,1,100.28195381164551,395.40696144104004,1173,1
187,control,7.0,11,1,102.18191146850586,497.12276458740234,901,1
188,control,8.0,11,1,394.6981430053711,394.69289779663086,1170,1
189,control,9.0,11,1,493.50595474243164,493.5009479522705,1309,1
190,control,10.0,11,1,394.6690559387207,394.6671485900879,1423,1
191,control,11.0,11,1,393.96023750305176,393.95713806152344,1338,1
192,control,12.0,11,1,494.68398094177246,494.68016624450684,1159,1
193,control,13.0,11,1,395.0519561767578,395.0467109680176,918,1
194,control,14.0,11,1,495.4500198364258,495.44692039489746,993,1
195,control,15.0,11,1,429.2638301849365,429.257869720459,1454,1
196,control,16.0,11,1,524.9409675598145,524.9357223510742,1022,1
197,control,17.0,11,1,991.0361766815186,991.0321235656738,1366,1
198,control,18.0,11,0,1088.0749225616455,1088.0718231201172,1266,1
199,control,19.0,11,1,492.57683753967285,492.5718307495117,1089,1
200,control,20.0,11,1,492.79093742370605,492.7849769592285,849,1
201,control,21.0,11,1,493.76606941223145,493.76416206359863,1057,1
202,control,22.0,11,1,494.4159984588623,494.4109916687012,1032,1
203,control,23.0,11,1,493.75319480895996,493.7448501586914,1080,1
204,control,24.0,11,1,394.4089412689209,394.406795501709,912,1
205,control,25.0,18,1,691.2059783935547,691.1990642547607,1173,1
206,control,26.0,14,1,494.5831298828125,494.57812309265137,1336,1
207,control,27.0,11,1,1517.2348022460938,1517.2297954559326,1234,1
208,control,28.0,11,1,493.04914474487305,493.04723739624023,1173,1
209,control,29.0,17,1,591.7589664459229,591.7539596557617,1493,1
210,control,30.0,14,1,988.7700080871582,988.764762878418,1011,1
211,control,5.0,8,1,96.81510925292969,494.3108558654785,1023,1
212,control,6.0,8,1,99.18022155761719,394.848108291626,1282,1
213,control,7.0,8,1,99.39789772033691,428.5247325897217,1403,1
214,control,8.0,8,1,99.2879867553711,592.8659439086914,955,1
215,control,9.0,8,1,393.6200141906738,393.618106842041,1449,1
216,control,10.0,8,1,402.1308422088623,402.1291732788086,1193,1
217,control,11.0,8,1,486.1340522766113,486.1321449279785,1189,1
218,control,12.0,8,1,495.03326416015625,495.028018951416,1136,1
219,control,13.0,8,1,492.83385276794434,492.8288459777832,855,1
220,control,14.0,8,1,493.99590492248535,493.99304389953613,941,1
221,control,15.0,8,1,495.1789379119873,495.175838470459,1420,1
222,control,16.0,8,1,392.4410343170166,392.43412017822266,1255,1
223,control,17.0,8,1,422.63317108154297,422.63102531433105,963,1
224,control,18.0,14,1,496.27065658569336,496.2649345397949,1056,1
225,control,19.0,8,1,498.2609748840332,498.25596809387207,1214,1
226,control,20.0,8,1,395.1380252838135,395.13587951660156,1456,1
227,control,21.0,8,1,493.44396591186523,493.4389591217041,1463,1
228,control,22.0,8,1,494.46678161621094,494.459867477417,1354,1
229,control,23.0,8,1,793.989896774292,793.9820289611816,1400,1
230,control,24.0,8,1,492.203950881958,492.19584465026855,1046,1
231,control,25.0,17,1,495.3770637512207,495.3742027282715,1339,1
232,control,26.0,14,1,493.50500106811523,493.5019016265869,1282,1
233,control,27.0,8,0,889.7831439971924,889.7800445556641,1457,1
234,control,28.0,8,0,1022.4099159240723,1022.407054901123,1119,1
235,control,29.0,15,1,920.9949970245361,920.9921360015869,830,1
236,control,30.0,14,1,790.5178070068359,790.5130386352539,1396,1
237,control,5.0,8,1,97.5191593170166,395.4761028289795,887,1
238,control,6.0,8,1,100.25596618652344,494.2610263824463,1203,1
239,control,7.0,8,1,395.06077766418457,395.05696296691895,1158,1
240,control,8.0,8,1,97.32794761657715,492.8910732269287,905,1
241,control,9.0,8,1,394.73509788513184,394.7329521179199,1150,1
242,control,10.0,8,1,493.0880069732666,493.0849075317383,937,1
243,control,11.0,8,1,498.7208843231201,498.7199306488037,1354,1
244,control,12.0,8,1,429.764986038208,429.75711822509766,1199,1
245,control,13.0,8,1,394.4220542907715,394.41919326782227,904,1
246,control,14.0,8,1,493.48998069763184,493.4878349304199,1091,1
247,control,15.0,8,1,493.76773834228516,493.76392364501953,1373,1
248,control,16.0,8,1,493.43419075012207,493.43109130859375,857,1
249,control,17.0,8,1,493.72100830078125,493.715763092041,841,1
250,control,18.0,14,1,499.1300106048584,499.1271495819092,1432,1
251,control,19.0,8,0,783.8468551635742,783.8428020477295,881,1
252,control,20.0,8,1,790.489673614502,790.4868125915527,1393,1
253,control,21.0,8,1,592.9651260375977,592.9570198059082,1108,1
254,control,22.0,8,1,790.6761169433594,790.6711101531982,1015,1
255,control,23.0,8,1,589.1149044036865,589.087963104248,939,1
256,control,24.0,8,1,395.65277099609375,395.6489562988281,1465,1
257,control,25.0,17,1,394.0451145172119,394.0401077270508,1044,1
258,control,26.0,12,1,491.33896827697754,491.3370609283447,937,1
259,control,27.0,11,1,1187.0322227478027,1187.0291233062744,1169,1
260,control,28.0,11,1,791.0358905792236,791.0337448120117,1350,1
261,control,29.0,15,1,694.1230297088623,694.1177845001221,1113,1
262,control,30.0,12,0,1582.0868015289307,1582.082748413086,1066,1
263,control,5.0,5,1,99.67994689941406,491.7759895324707,897,1
264,control,6.0,5,1,98.53410720825195,485.1970672607422,1229,1
265,control,7.0,5,1,100.54779052734375,589.4999504089355,1353,1
266,control,8.0,5,1,96.51780128479004,989.1817569732666,814,1
267,control,9.0,5,1,198.37403297424316,396.3170051574707,1414,1
268,control,10.0,5,1,426.61023139953613,426.6071319580078,1367,1
269,control,11.0,5,1,689.6982192993164,689.6944046020508,1015,1
270,control,12.0,5,1,792.9389476776123,792.9370403289795,1096,1
271,control,13.0,5,0,690.5918121337891,690.5858516693115,1347,1
272,control,14.0,5,1,626.3289451599121,626.3258457183838,1248,1
273,control,15.0,5,1,720.649003982544,720.6473350524902,1261,1
274,control,16.0,5,0,690.3460025787354,690.342903137207,981,1
275,control,17.0,5,0,691.4410591125488,691.4381980895996,1092,1
276,control,18.0,12,1,593.8029289245605,593.796968460083,1312,1
277,control,19.0,11,1,395.92814445495605,395.92623710632324,947,1
278,control,20.0,5,0,692.0731067657471,692.0700073242188,1297,1
279,control,21.0,5,0,592.818021774292,592.8151607513428,1358,1
280,control,22.0,5,0,691.7901039123535,691.784143447876,1479,1
281,control,23.0,5,1,883.9249610900879,883.9230537414551,1094,1
282,control,24.0,5,0,1019.6270942687988,1019.6199417114258,1487,1
283,control,25.0,15,1,586.622953414917,586.6208076477051,1335,1
284,control,26.0,12,1,798.6428737640381,798.6350059509277,1004,1
285,control,27.0,11,0,396.2569236755371,396.2538242340088,1211,1
286,control,28.0,11,1,692.2318935394287,692.2287940979004,868,1
287,control,29.0,14,1,692.0850276947021,692.0821666717529,1365,1
288,control,30.0,14,1,798.598051071167,798.5930442810059,1482,1
289,control,5.0,5,1,96.7862606048584,396.773099899292,937,1
290,control,6.0,5,1,98.12569618225098,493.837833404541,1157,1
291,control,7.0,5,0,96.53306007385254,790.6346321105957,1497,1
292,control,8.0,5,1,99.46703910827637,393.4619426727295,1390,1
293,control,9.0,5,0,96.14801406860352,691.7240619659424,804,0
294,control,9.0,5,1,526.4840126037598,526.4699459075928,1156,1
295,control,10.0,5,0,494.34494972229004,494.3408966064453,1481,1
296,control,11.0,5,1,498.30007553100586,498.2631206512451,1243,1
297,control,12.0,5,0,494.049072265625,494.0471649169922,1254,1
298,control,13.0,8,0,791.1109924316406,791.1078929901123,822,1
299,control,14.0,5,0,693.3858394622803,693.3817863464355,1048,1
300,control,15.0,5,0,692.6219463348389,692.6188468933105,1073,1
301,control,16.0,8,1,496.0310459136963,496.02580070495605,1337,1
302,control,17.0,8,1,494.24123764038086,494.2312240600586,1373,1
303,control,18.0,12,1,495.1958656311035,495.1920509338379,880,1
304,control,19.0,11,1,494.89283561706543,494.8887825012207,1064,1
305,control,20.0,8,1,823.462963104248,823.4570026397705,1001,1
306,control,21.0,8,1,688.5509490966797,688.5430812835693,1353,1
307,control,22.0,8,1,499.910831451416,499.9070167541504,825,1
308,control,23.0,5,0,594.3539142608643,594.351053237915,926,1
309,control,24.0,8,1,591.468095779419,591.4618968963623,924,1
310,control,25.0,15,1,492.8269386291504,492.82383918762207,999,1
311,control,26.0,11,1,529.6311378479004,529.6249389648438,937,1
312,control,27.0,12,0,914.7608280181885,914.7586822509766,1212,1
313,control,28.0,9,1,594.2578315734863,594.2537784576416,1278,1
314,control,29.0,14,1,393.79310607910156,393.779993057251,1363,1
315,control,30.0,14,1,494.581937789917,494.57621574401855,1354,1
316,control,5.0,2,1,97.13506698608398,790.0440692901611,863,1
317,control,6.0,2,1,99.2581844329834,1515.7771110534668,994,1
318,control,7.0,8,1,97.63503074645996,491.6510581970215,1085,1
319,control,8.0,2,1,295.53914070129395,1287.8460884094238,1065,1
320,control,9.0,2,0,98.7849235534668,1714.2326831817627,1408,1
321,control,10.0,8,1,493.87288093566895,493.8678741455078,1301,1
322,control,11.0,2,0,888.8030052185059,888.7989521026611,1436,1
323,control,12.0,8,1,493.99328231811523,493.9901828765869,1295,1
324,control,13.0,11,1,492.5968647003174,492.59305000305176,1306,1
325,control,14.0,8,1,587.7120494842529,587.709903717041,1141,1
326,control,15.0,8,0,1286.8831157684326,1286.8800163269043,1269,1
327,control,16.0,8,1,783.1799983978271,783.1778526306152,1252,1
328,control,17.0,8,1,628.8230419158936,628.8180351257324,1320,1
329,control,18.0,11,1,427.02698707580566,427.02412605285645,1158,1
330,control,19.0,9,1,425.34875869750977,425.34613609313965,1054,1
331,control,20.0,8,1,493.43299865722656,493.4260845184326,1027,1
332,control,21.0,8,1,492.19799041748047,492.19512939453125,1073,1
333,control,22.0,8,1,1284.4390869140625,1284.4369411468506,1441,1
334,control,23.0,8,1,693.2079792022705,693.2060718536377,936,1
335,control,24.0,8,1,724.3049144744873,724.3020534515381,1439,1
336,control,25.0,14,1,790.7261848449707,790.7230854034424,1096,1
337,control,26.0,11,1,589.3938541412354,589.3890857696533,1342,1
338,control,27.0,14,1,492.29884147644043,492.2938346862793,1301,1
339,control,28.0,9,1,889.0650272369385,889.0621662139893,1362,1
340,control,29.0,12,1,791.5408611297607,791.5389537811279,934,1
341,control,30.0,13,1,526.8900394439697,526.8869400024414,1157,1
342,control,5.0,2,0,98.88482093811035,1707.3628902435303,1095,1
343,control,6.0,2,0,96.27199172973633,1286.4348888397217,817,1
344,control,7.0,8,1,100.25405883789062,693.0561065673828,1397,1
345,control,8.0,2,1,95.95084190368652,1715.303897857666,977,1
346,control,9.0,5,1,199.57590103149414,791.5050983428955,1178,1
347,control,10.0,8,1,489.5508289337158,489.54081535339355,936,1
348,control,11.0,5,1,496.16265296936035,496.1588382720947,1499,1
349,control,12.0,8,1,493.26109886169434,493.2558536529541,1313,1
350,control,13.0,11,1,493.2410717010498,493.2379722595215,1497,1
351,control,14.0,8,1,488.06214332580566,488.06118965148926,1026,1
352,control,15.0,11,1,593.1379795074463,593.1341648101807,1458,1
353,control,16.0,6,1,1881.0830116271973,1881.080150604248,1440,1
354,control,17.0,6,1,625.8690357208252,625.8578300476074,893,1
355,control,18.0,11,1,790.6339168548584,790.6291484832764,1495,1
356,control,19.0,9,1,493.4210777282715,493.41416358947754,1464,1
357,control,20.0,6,0,791.9650077819824,791.9609546661377,1009,1
358,control,21.0,6,1,1418.19429397583,1418.1890487670898,1355,1
359,control,22.0,6,1,1614.609956741333,1614.603042602539,1043,1
360,control,23.0,8,1,783.5750579833984,783.5729122161865,1305,1
361,control,24.0,6,1,891.3698196411133,891.3657665252686,900,1
362,control,25.0,14,1,592.796802520752,592.7841663360596,829,1
363,control,26.0,9,1,693.7739849090576,693.7680244445801,1268,1
364,control,27.0,14,1,2204.796075820923,2204.7948837280273,801,1
365,control,28.0,8,0,690.9990310668945,690.9940242767334,846,1
366,control,29.0,12,1,1782.1831703186035,1782.175064086914,1370,1
367,control,30.0,13,1,787.0111465454102,787.0070934295654,833,1
368,control,5.0,5,1,98.91104698181152,526.6990661621094,958,1
369,control,6.0,5,1,99.20167922973633,427.35791206359863,916,1
370,control,7.0,6,1,592.2348499298096,592.2317504882812,886,1
371,control,8.0,1,0,724.5688438415527,724.5669364929199,1474,1
372,control,9.0,5,1,493.6032295227051,493.60108375549316,1208,1
373,control,10.0,6,1,493.96419525146484,493.959903717041,922,1
374,control,11.0,5,1,492.9220676422119,492.919921875,1017,1
375,control,12.0,6,1,392.3358917236328,392.3320770263672,1128,1
376,control,13.0,9,1,496.2952136993408,496.2930679321289,887,1
377,control,14.0,6,0,690.9670829772949,690.9630298614502,1103,1
378,control,15.0,11,1,693.6807632446289,693.6788558959961,1413,1
379,control,16.0,6,1,1518.3849334716797,1518.3801651000977,1403,1
380,control,17.0,6,1,1782.926082611084,1782.9208374023438,818,1
381,control,18.0,9,1,526.5889167785645,526.5820026397705,1053,1
382,control,19.0,8,1,1216.6547775268555,1216.6509628295898,1008,1
383,control,20.0,8,1,699.6588706970215,699.6557712554932,1074,1
384,control,21.0,6,1,691.3819313049316,691.378116607666,1069,1
385,control,22.0,6,1,1714.8048877716064,1714.8008346557617,1377,1
386,control,23.0,6,0,791.179895401001,791.172981262207,1372,1
387,control,24.0,6,1,690.4008388519287,690.3989315032959,1385,1
388,control,25.0,12,1,493.5429096221924,493.53885650634766,1190,1
389,control,26.0,9,0,723.71506690979,723.7100601196289,1475,1
390,control,27.0,13,1,889.7972106933594,889.7871971130371,1397,1
391,control,28.0,9,1,1715.113878250122,1715.1107788085938,1009,1
392,control,29.0,11,1,1707.0379257202148,1707.0369720458984,1250,1
393,control,30.0,12,1,692.5177574157715,692.5148963928223,802,1
1,quadbright,5.0,20,1,99.36904907226562,694.2379474639893,1263,1
2,quadbright,6.0,20,1,98.02007675170898,493.58224868774414,1210,1
3,quadbright,7.0,20,1,99.20096397399902,492.4428462982178,1051,1
4,quadbright,8.0,20,1,98.80924224853516,393.94116401672363,1319,1
5,quadbright,9.0,20,1,491.91808700561523,491.90711975097656,1229,1
6,quadbright,10.0,20,1,496.021032333374,496.0188865661621,1066,1
7,quadbright,11.0,20,1,492.5858974456787,492.57588386535645,954,1
8,quadbright,12.0,20,1,394.5190906524658,394.50788497924805,871,1
9,quadbright,13.0,20,1,395.75791358947754,395.7550525665283,977,1
10,quadbright,14.0,20,1,393.9492702484131,393.94307136535645,1085,1
11,quadbright,15.0,20,1,494.89426612854004,494.8873519897461,1093,1
12,quadbright,16.0,20,1,492.7709102630615,492.7651882171631,929,1
13,quadbright,17.0,20,1,492.063045501709,492.05994606018066,939,1
14,quadbright,18.0,20,1,492.97380447387695,492.97165870666504,960,1
15,quadbright,19.0,20,1,392.85922050476074,392.8570747375488,1480,1
16,quadbright,20.0,20,1,493.87311935424805,493.8669204711914,1038,1
17,quadbright,21.0,20,1,392.26603507995605,392.2619819641113,1371,1
18,quadbright,22.0,20,1,491.487979888916,491.4863109588623,852,1
19,quadbright,23.0,20,1,503.57508659362793,503.5710334777832,1469,1
20,quadbright,24.0,20,1,494.3721294403076,494.3668842315674,1013,1
21,quadbright,25.0,20,1,494.5998191833496,494.5950508117676,914,1
22,quadbright,26.0,20,1,527.1201133728027,527.1139144897461,1149,1
23,quadbright,27.0,20,1,395.06983757019043,395.0648307800293,841,1
24,quadbright,28.0,20,1,493.3428764343262,493.34001541137695,1302,1
25,quadbright,29.0,20,0,792.1671867370605,792.1590805053711,1112,1
26,quadbright,30.0,20,1,492.74682998657227,492.74182319641113,1386,1
27,quadbright,5.0,20,1,100.11792182922363,494.2328929901123,861,1
28,quadbright,6.0,20,1,89.86210823059082,394.3901062011719,1162,1
29,quadbright,7.0,20,1,99.11012649536133,394.6199417114258,1339,1
30,quadbright,8.0,20,1,98.26874732971191,493.5729503631592,1206,1
31,quadbright,9.0,20,1,392.4410343170166,392.43507385253906,1143,1
32,quadbright,10.0,20,1,493.6330318450928,493.6261177062988,961,1
33,quadbright,11.0,20,1,396.8808650970459,396.8768119812012,1279,1
34,quadbright,12.0,20,1,394.28186416625977,394.2759037017822,1449,1
35,quadbright,13.0,20,1,493.35408210754395,493.35193634033203,1060,1
36,quadbright,14.0,20,1,528.2750129699707,528.2659530639648,1262,1
37,quadbright,15.0,20,1,427.83212661743164,427.8271198272705,976,1
38,quadbright,16.0,20,1,494.5030212402344,494.4949150085449,1493,1
39,quadbright,17.0,20,1,394.0763473510742,394.0742015838623,924,1
40,quadbright,18.0,20,1,496.2117671966553,496.2027072906494,842,1
41,quadbright,19.0,20,1,394.64497566223145,394.6421146392822,814,1
42,quadbright,20.0,20,1,402.34899520874023,402.3458957672119,927,1
43,quadbright,21.0,20,1,394.1819667816162,394.1760063171387,1215,1
44,quadbright,22.0,20,1,493.38293075561523,493.3769702911377,1248,1
45,quadbright,23.0,20,1,394.589900970459,394.58203315734863,1162,1
46,quadbright,24.0,20,1,526.5769958496094,526.576042175293,1065,1
47,quadbright,25.0,20,1,494.4026470184326,494.3969249725342,1446,1
48,quadbright,26.0,20,1,592.5772190093994,592.5681591033936,1358,1
49,quadbright,27.0,20,1,394.0691947937012,394.06418800354004,900,1
50,quadbright,28.0,20,1,592.3001766204834,592.2980308532715,932,1
51,quadbright,29.0,23,1,498.4130859375,498.40521812438965,1139,1
52,quadbright,30.0,20,0,1187.1278285980225,1187.1159076690674,854,1
53,quadbright,5.0,17,1,97.82910346984863,492.4643039703369,1199,1
54,quadbright,6.0,17,1,98.23274612426758,493.39985847473145,948,1
55,quadbright,7.0,17,1,99.57098960876465,394.0770626068115,1234,1
56,quadbright,8.0,17,1,98.16122055053711,394.6361541748047,928,1
57,quadbright,9.0,17,1,394.96421813964844,394.9601650238037,1165,1
58,quadbright,10.0,17,1,490.97418785095215,490.97204208374023,882,1
59,quadbright,11.0,17,1,592.9379463195801,592.9348468780518,1042,1
60,quadbright,12.0,17,1,496.8116283416748,496.8090057373047,1169,1
61,quadbright,13.0,17,1,493.50881576538086,493.50500106811523,908,1
62,quadbright,14.0,17,1,627.3119449615479,627.3069381713867,972,1
63,quadbright,15.0,17,1,592.2880172729492,592.2818183898926,1406,1
64,quadbright,16.0,17,1,493.9727783203125,493.96681785583496,1296,1
65,quadbright,17.0,17,1,428.9970397949219,428.99084091186523,1352,1
66,quadbright,18.0,17,1,493.5650825500488,493.55292320251465,840,1
67,quadbright,19.0,17,1,491.42003059387207,491.41788482666016,1242,1
68,quadbright,20.0,17,1,524.6329307556152,524.630069732666,1326,1
69,quadbright,21.0,17,1,492.73014068603516,492.72823333740234,1122,1
70,quadbright,22.0,17,1,494.3828582763672,494.37904357910156,1328,1
71,quadbright,23.0,17,1,495.2709674835205,495.2671527862549,991,1
72,quadbright,24.0,17,1,494.88019943237305,494.8759078979492,1234,1
73,quadbright,25.0,17,1,395.313024520874,395.3080177307129,1449,1
74,quadbright,26.0,17,1,692.87109375,692.8648948669434,1010,1
75,quadbright,27.0,17,1,1088.209867477417,1088.2058143615723,1175,1
76,quadbright,28.0,17,1,494.73094940185547,494.72880363464355,1374,1
77,quadbright,29.0,23,1,496.55723571777344,496.5541362762451,975,1
78,quadbright,30.0,23,1,494.0752983093262,494.07219886779785,1062,1
79,quadbright,5.0,17,1,101.86910629272461,497.1311092376709,840,1
80,quadbright,6.0,17,1,99.21693801879883,395.4482078552246,1351,1
81,quadbright,7.0,17,1,98.35600852966309,392.3461437225342,1121,1
82,quadbright,8.0,17,1,493.7100410461426,493.70789527893066,1455,1
83,quadbright,9.0,17,1,495.5928325653076,495.5880641937256,961,1
84,quadbright,10.0,17,1,295.84383964538574,394.9449062347412,959,1
85,quadbright,11.0,17,1,492.53106117248535,492.5270080566406,1127,1
86,quadbright,12.0,17,1,494.7061538696289,494.7009086608887,1193,1
87,quadbright,13.0,17,1,396.53515815734863,396.5308666229248,1015,1
88,quadbright,14.0,17,1,494.1401481628418,494.13609504699707,1150,1
89,quadbright,15.0,17,1,492.0341968536377,492.023229598999,1267,1
90,quadbright,16.0,17,1,495.45907974243164,495.4559803009033,1323,1
91,quadbright,17.0,17,1,493.3159351348877,493.31188201904297,971,1
92,quadbright,18.0,17,1,397.0940113067627,397.08900451660156,1076,1
93,quadbright,19.0,17,1,395.38002014160156,395.37692070007324,1385,1
94,quadbright,20.0,17,1,990.0379180908203,990.034818649292,1120,1
95,quadbright,21.0,17,1,394.09828186035156,394.09399032592773,983,1
96,quadbright,22.0,17,1,493.2868480682373,493.2847023010254,1405,1
97,quadbright,23.0,17,1,395.2169418334961,395.20883560180664,1083,1
98,quadbright,24.0,17,1,493.45898628234863,493.455171585083,1366,1
99,quadbright,25.0,17,1,393.5670852661133,393.56112480163574,1359,1
100,quadbright,26.0,17,1,593.8489437103271,593.8467979431152,923,1
101,quadbright,27.0,17,1,394.41800117492676,394.41609382629395,950,1
102,quadbright,28.0,17,1,3498.8131523132324,3498.807907104492,1438,1
103,quadbright,29.0,20,1,396.21591567993164,396.2101936340332,1266,1
104,quadbright,30.0,23,1,392.82798767089844,392.8227424621582,1154,1
105,quadbright,5.0,14,1,101.74226760864258,596.0421562194824,1408,1
106,quadbright,6.0,14,1,98.9832878112793,493.6392307281494,1106,1
107,quadbright,7.0,14,1,100.20112991333008,495.2402114868164,887,1
108,quadbright,8.0,14,1,95.20292282104492,494.4159984588623,849,1
109,quadbright,9.0,14,1,526.1108875274658,526.1049270629883,1097,1
110,quadbright,10.0,14,1,392.5328254699707,392.5297260284424,1309,1
111,quadbright,11.0,14,1,393.3079242706299,393.30410957336426,1345,1
112,quadbright,12.0,14,1,393.98813247680664,393.9850330352783,996,1
113,quadbright,13.0,14,1,427.5341033935547,427.53005027770996,1258,1
114,quadbright,14.0,14,1,426.5458583831787,426.53965950012207,929,1
115,quadbright,15.0,14,1,495.1457977294922,495.14269828796387,1014,1
116,quadbright,16.0,14,1,393.74685287475586,393.7418460845947,1318,1
117,quadbright,17.0,14,1,494.63510513305664,494.631290435791,1409,1
118,quadbright,18.0,14,1,395.1449394226074,395.1411247253418,1261,1
119,quadbright,19.0,14,1,395.72978019714355,395.72691917419434,1246,1
120,quadbright,20.0,14,0,792.3300266265869,792.3221588134766,939,1
121,quadbright,21.0,14,1,494.24099922180176,494.23670768737793,1034,1
122,quadbright,22.0,14,1,395.57576179504395,395.5719470977783,821,1
123,quadbright,23.0,14,1,594.3801403045654,594.3710803985596,1072,1
124,quadbright,24.0,14,1,494.60315704345703,494.6000576019287,1312,1
125,quadbright,25.0,14,1,390.98119735717773,390.9780979156494,1183,1
126,quadbright,26.0,14,1,397.1848487854004,397.18079566955566,1109,1
127,quadbright,27.0,14,1,493.3497905731201,493.3440685272217,1118,1
128,quadbright,28.0,14,1,789.625883102417,789.6220684051514,1353,1
129,quadbright,29.0,20,1,494.79198455810547,494.78816986083984,1220,1
130,quadbright,30.0,21,1,494.3370819091797,494.3351745605469,1299,1
131,quadbright,5.0,14,1,99.22909736633301,394.6681022644043,1319,1
132,quadbright,6.0,14,1,99.02191162109375,395.0159549713135,1027,1
133,quadbright,7.0,14,1,99.2119312286377,394.93393898010254,1376,1
134,quadbright,8.0,14,1,99.01714324951172,428.24411392211914,1498,1
135,quadbright,9.0,14,1,97.7480411529541,491.12391471862793,1327,0
136,quadbright,9.0,14,1,392.9121494293213,392.90499687194824,1102,1
137,quadbright,10.0,14,1,494.5411682128906,494.5380687713623,981,1
138,quadbright,11.0,14,1,625.0360012054443,625.0250339508057,1073,1
139,quadbright,12.0,14,1,430.3131103515625,430.3102493286133,865,1
140,quadbright,13.0,14,1,494.5499897003174,494.54593658447266,932,1
141,quadbright,14.0,14,1,1187.6859664916992,1187.68310546875,1124,1
142,quadbright,15.0,14,1,594.6612358093262,594.6581363677979,1329,1
143,quadbright,16.0,14,1,493.79897117614746,493.7858581542969,1368,1
144,quadbright,17.0,14,1,494.28296089172363,494.2798614501953,811,1
145,quadbright,18.0,14,0,723.2761383056641,723.2730388641357,854,1
146,quadbright,19.0,14,1,527.400016784668,527.397871017456,997,1
147,quadbright,20.0,17,1,394.14381980895996,394.14191246032715,909,1
148,quadbright,21.0,14,1,393.97406578063965,393.9681053161621,924,1
149,quadbright,22.0,14,1,394.67787742614746,394.67597007751465,1420,1
150,quadbright,23.0,14,1,394.3939208984375,394.3932056427002,1257,1
151,quadbright,24.0,14,1,492.83409118652344,492.8309917449951,1487,1
152,quadbright,25.0,14,1,493.35384368896484,493.3509826660156,1409,1
153,quadbright,26.0,14,1,691.7119026184082,691.7047500610352,991,1
154,quadbright,27.0,14,0,791.1989688873291,791.1970615386963,905,1
155,quadbright,28.0,14,1,523.9949226379395,523.9920616149902,1196,1
156,quadbright,29.0,17,1,492.85197257995605,492.8467273712158,1217,1
157,quadbright,30.0,21,1,492.66982078552246,492.6638603210449,874,1
158,quadbright,5.0,11,1,99.00617599487305,591.698169708252,923,1
159,quadbright,6.0,11,1,98.04010391235352,493.03340911865234,1163,1
160,quadbright,7.0,11,1,99.32684898376465,393.8009738922119,982,1
161,quadbright,8.0,11,1,395.7550525665283,395.751953125,938,1
162,quadbright,9.0,11,1,724.6768474578857,724.6749401092529,1179,1
163,quadbright,10.0,11,1,491.75119400024414,491.746187210083,809,1
164,quadbright,11.0,11,1,393.5999870300293,393.5990333557129,1348,1
165,quadbright,12.0,11,1,527.5321006774902,527.5249481201172,968,1
166,quadbright,13.0,11,1,492.2652244567871,492.2630786895752,1411,1
167,quadbright,14.0,11,1,396.409273147583,396.4061737060547,1348,1
168,quadbright,15.0,11,1,494.2348003387451,494.232177734375,1379,1
169,quadbright,16.0,11,1,493.3629035949707,493.35575103759766,1205,1
170,quadbright,17.0,11,1,492.8300380706787,492.825984954834,903,1
171,quadbright,18.0,17,1,593.0368900299072,593.0330753326416,893,1
172,quadbright,19.0,11,1,487.6980781555176,487.69617080688477,1413,1
173,quadbright,20.0,17,1,493.65878105163574,493.6556816101074,890,1
174,quadbright,21.0,11,1,394.4571018218994,394.4518566131592,800,1
175,quadbright,22.0,11,0,1087.122917175293,1087.116003036499,1469,1
176,quadbright,23.0,11,0,788.2049083709717,788.2030010223389,806,1
177,quadbright,24.0,11,1,592.667818069458,592.6640033721924,1069,1
178,quadbright,25.0,11,1,692.0461654663086,692.0390129089355,1446,1
179,quadbright,26.0,11,0,790.8570766448975,790.8461093902588,1442,1
180,quadbright,27.0,17,1,592.9021835327148,592.8902626037598,1358,1
181,quadbright,28.0,11,0,790.1949882507324,790.1880741119385,1144,1
182,quadbright,29.0,17,1,396.104097366333,396.1021900177002,1158,1
183,quadbright,30.0,20,1,693.6888694763184,693.6841011047363,872,1
184,quadbright,5.0,11,1,101.47285461425781,494.46773529052734,807,1
185,quadbright,6.0,11,1,100.28529167175293,395.30014991760254,1179,1
186,quadbright,7.0,11,1,99.81989860534668,398.67496490478516,1174,1
187,quadbright,8.0,11,1,392.16017723083496,392.1530246734619,866,1
188,quadbright,9.0,11,1,395.3380584716797,395.33424377441406,1063,1
189,quadbright,10.0,11,1,401.3490676879883,401.34716033935547,1448,1
190,quadbright,11.0,11,1,495.4099655151367,495.40090560913086,1157,1
191,quadbright,12.0,11,1,399.32894706726074,399.3268013000488,1167,1
192,quadbright,13.0,11,1,429.0759563446045,429.07071113586426,1446,1
193,quadbright,14.0,11,1,529.2909145355225,529.2882919311523,951,1
194,quadbright,15.0,11,0,295.1319217681885,295.12810707092285,1293,1
195,quadbright,16.0,11,1,493.7710762023926,493.76392364501953,1189,1
196,quadbright,17.0,11,1,493.927001953125,493.92104148864746,995,1
197,quadbright,18.0,17,1,395.13087272644043,395.1280117034912,977,1
198,quadbright,19.0,11,1,494.6470260620117,494.6451187133789,814,1
199,quadbright,20.0,15,1,393.89586448669434,393.8920497894287,967,1
200,quadbright,21.0,11,1,429.4610023498535,429.4583797454834,1468,1
201,quadbright,22.0,14,1,394.8171138763428,394.8080539703369,1133,1
202,quadbright,23.0,14,1,493.8158988952637,493.81399154663086,1214,1
203,quadbright,24.0,11,1,492.80834197998047,492.80619621276855,1350,1
204,quadbright,25.0,11,1,493.0250644683838,493.01886558532715,942,1
205,quadbright,26.0,14,1,496.0289001464844,496.02198600769043,1359,1
206,quadbright,27.0,17,1,494.5831298828125,494.57502365112305,1201,1
207,quadbright,28.0,14,1,722.6078510284424,722.6049900054932,1253,1
208,quadbright,29.0,14,1,692.3768520355225,692.3689842224121,1034,1
209,quadbright,30.0,20,1,889.6949291229248,889.6887302398682,1458,1
210,quadbright,5.0,8,1,93.28889846801758,520.3518867492676,1326,1
211,quadbright,6.0,8,1,105.9877872467041,399.9500274658203,1096,1
212,quadbright,7.0,8,1,99.26295280456543,389.42623138427734,1136,1
213,quadbright,8.0,8,1,390.8250331878662,390.8219337463379,1450,1
214,quadbright,9.0,8,1,394.0300941467285,394.0238952636719,1341,1
215,quadbright,10.0,8,1,493.52288246154785,493.5140609741211,1327,1
216,quadbright,11.0,8,1,497.1730709075928,497.17116355895996,872,1
217,quadbright,12.0,8,1,428.47609519958496,428.4679889678955,871,1
218,quadbright,13.0,8,1,522.1271514892578,522.1250057220459,1431,1
219,quadbright,14.0,8,0,626.7850399017334,626.7800331115723,922,1
220,quadbright,15.0,14,1,623.8741874694824,623.8679885864258,910,1
221,quadbright,16.0,8,1,989.4189834594727,989.4161224365234,1191,1
222,quadbright,17.0,8,0,791.4609909057617,791.4559841156006,818,1
223,quadbright,18.0,15,1,520.4341411590576,520.4322338104248,1487,1
224,quadbright,19.0,8,1,830.7769298553467,830.772876739502,1060,1
225,quadbright,20.0,15,1,525.8030891418457,525.7959365844727,1177,1
226,quadbright,21.0,8,1,922.7199554443359,922.7149486541748,898,1
227,quadbright,22.0,14,1,394.06490325927734,394.0596580505371,919,1
228,quadbright,23.0,14,1,494.08793449401855,494.08531188964844,1030,1
229,quadbright,24.0,8,1,694.4639682769775,694.4608688354492,1407,1
230,quadbright,25.0,8,0,1386.765956878662,1386.760950088501,815,1
231,quadbright,26.0,14,1,982.5389385223389,982.536792755127,1358,1
232,quadbright,27.0,15,1,495.84221839904785,495.8381652832031,1057,1
233,quadbright,28.0,14,1,691.8401718139648,691.8342113494873,1094,1
234,quadbright,29.0,14,1,1815.0289058685303,1815.026044845581,1119,1
235,quadbright,30.0,18,0,691.6520595550537,691.6460990905762,1316,1
236,quadbright,5.0,8,1,102.51426696777344,398.2529640197754,1084,1
237,quadbright,6.0,8,1,98.35124015808105,692.1861171722412,1148,1
238,quadbright,7.0,8,1,130.9809684753418,722.7320671081543,1469,1
239,quadbright,8.0,8,0,98.94800186157227,496.243953704834,1237,1
240,quadbright,9.0,8,1,493.77989768981934,493.7729835510254,1086,1
241,quadbright,10.0,8,1,493.87216567993164,493.8681125640869,985,1
242,quadbright,11.0,8,1,394.3047523498535,394.298791885376,1159,1
243,quadbright,12.0,8,1,626.1696815490723,626.1618137359619,951,1
244,quadbright,13.0,8,1,591.3019180297852,591.2997722625732,1257,1
245,quadbright,14.0,11,1,494.89521980285645,494.8880672454834,1349,1
246,quadbright,15.0,14,1,491.78600311279297,491.78504943847656,1223,1
247,quadbright,16.0,8,0,595.6778526306152,595.6699848175049,802,1
248,quadbright,17.0,11,1,394.00196075439453,393.9998149871826,1452,1
249,quadbright,18.0,15,1,392.95506477355957,392.95387268066406,1339,1
250,quadbright,19.0,8,1,790.9970283508301,790.9941673278809,1020,1
251,quadbright,20.0,14,1,493.41487884521484,493.4108257293701,1471,1
252,quadbright,21.0,8,1,488.24524879455566,488.24334144592285,1221,1
253,quadbright,22.0,12,1,789.9391651153564,789.9360656738281,1176,1
254,quadbright,23.0,12,0,794.6531772613525,794.6481704711914,863,1
255,quadbright,24.0,8,1,692.1041011810303,692.1019554138184,865,1
256,quadbright,25.0,11,0,780.5650234222412,780.5640697479248,855,1
257,quadbright,26.0,12,0,788.2938385009766,788.2907390594482,1019,1
258,quadbright,27.0,15,1,725.5549430847168,725.5489826202393,1100,1
259,quadbright,28.0,12,1,691.5061473846436,691.4989948272705,1308,1
260,quadbright,29.0,11,1,692.0900344848633,692.0881271362305,1074,1
261,quadbright,30.0,20,1,595.3998565673828,595.3929424285889,968,1
262,quadbright,5.0,5,1,99.29800033569336,486.7839813232422,1337,1
263,quadbright,6.0,5,0,99.9290943145752,988.4321689605713,1406,1
264,quadbright,7.0,5,1,103.21688652038574,597.6519584655762,1366,1
265,quadbright,8.0,11,1,526.9150733947754,526.9100666046143,927,1
266,quadbright,9.0,5,1,99.6859073638916,891.0839557647705,859,1
267,quadbright,10.0,5,1,693.3760643005371,693.3691501617432,1022,1
268,quadbright,11.0,5,1,395.0960636138916,395.08914947509766,1260,1
269,quadbright,12.0,5,0,784.2178344726562,784.2166423797607,1476,1
270,quadbright,13.0,5,0,820.8649158477783,820.8589553833008,1390,1
271,quadbright,14.0,11,1,489.6700382232666,489.6688461303711,1089,1
272,quadbright,15.0,12,1,788.1810665130615,788.1748676300049,885,1
273,quadbright,16.0,11,0,691.14089012146,691.1377906799316,1380,1
274,quadbright,17.0,11,1,693.2039260864258,693.1967735290527,1214,1
275,quadbright,18.0,14,1,493.2229518890381,493.21699142456055,1128,1
276,quadbright,19.0,5,0,787.8289222717285,787.8279685974121,1186,1
277,quadbright,20.0,14,0,792.449951171875,792.443037033081,899,1
278,quadbright,21.0,5,0,593.6892032623291,593.6801433563232,913,1
279,quadbright,22.0,12,1,593.1830406188965,593.1799411773682,1025,1
280,quadbright,23.0,14,0,825.9761333465576,825.9708881378174,1249,1
281,quadbright,24.0,5,0,593.390941619873,593.3890342712402,1385,1
282,quadbright,25.0,14,1,395.7638740539551,395.76172828674316,1394,1
283,quadbright,26.0,14,0,622.6949691772461,622.6909160614014,1167,1
284,quadbright,27.0,14,0,892.7497863769531,892.7459716796875,873,1
285,quadbright,28.0,12,0,724.2193222045898,724.2140769958496,1072,1
286,quadbright,29.0,11,1,593.0440425872803,593.0421352386475,1338,1
287,quadbright,30.0,20,0,691.0760402679443,691.0700798034668,1344,1
288,quadbright,5.0,5,1,99.0910530090332,691.5090084075928,914,1
289,quadbright,6.0,8,1,99.38383102416992,494.6098327636719,1092,1
290,quadbright,7.0,5,1,783.1559181213379,783.153772354126,1010,1
291,quadbright,8.0,11,1,98.12593460083008,492.326021194458,878,1
292,quadbright,9.0,5,1,684.2708587646484,684.2696666717529,954,1
293,quadbright,10.0,5,1,691.6179656982422,691.6148662567139,940,1
294,quadbright,11.0,5,0,922.4660396575928,922.4629402160645,968,1
295,quadbright,12.0,8,1,623.3179569244385,623.3119964599609,801,1
296,quadbright,13.0,8,1,493.87192726135254,493.8690662384033,1342,1
297,quadbright,14.0,9,1,591.7551517486572,591.749906539917,1330,1
298,quadbright,15.0,12,1,588.8218879699707,588.8209342956543,815,1
299,quadbright,16.0,14,1,395.7188129425049,395.71571350097656,1496,1
300,quadbright,17.0,9,0,1085.1707458496094,1085.1666927337646,1323,1
301,quadbright,18.0,14,1,592.2641754150391,592.2591686248779,1023,1
302,quadbright,19.0,8,1,1318.7181949615479,1318.7100887298584,1363,1
303,quadbright,20.0,15,1,524.6021747589111,524.5981216430664,1059,1
304,quadbright,21.0,8,1,693.1910514831543,693.1841373443604,1244,1
305,quadbright,22.0,11,1,486.86885833740234,486.86695098876953,1275,1
306,quadbright,23.0,15,1,797.1830368041992,797.1792221069336,1065,1
307,quadbright,24.0,8,1,1089.8680686950684,1089.86496925354,1465,1
308,quadbright,25.0,14,1,489.95208740234375,489.948034286499,1431,1
309,quadbright,26.0,15,1,625.471830368042,625.4689693450928,1388,1
310,quadbright,27.0,15,1,502.08115577697754,502.0790100097656,1071,1
311,quadbright,28.0,14,1,592.6737785339355,592.667818069458,1465,1
312,quadbright,29.0,8,0,692.5666332244873,692.5649642944336,1343,1
313,quadbright,30.0,21,1,1617.8662776947021,1617.8641319274902,807,1
314,quadbright,5.0,2,1,99.48492050170898,1317.5020217895508,1076,1
315,quadbright,6.0,8,1,99.0290641784668,691.6048526763916,911,1
316,quadbright,7.0,2,0,98.72889518737793,689.0170574188232,857,1
317,quadbright,8.0,9,1,99.45082664489746,494.87900733947754,1230,1
318,quadbright,9.0,2,0,99.13516044616699,790.7121181488037,1427,1
319,quadbright,10.0,2,0,1583.500862121582,1583.495855331421,1209,1
320,quadbright,11.0,8,1,718.7368869781494,718.735933303833,879,1
321,quadbright,12.0,8,1,525.9859561920166,525.9828567504883,1157,1
322,quadbright,13.0,8,1,589.7557735443115,589.749813079834,1011,1
323,quadbright,14.0,9,1,591.9311046600342,591.9270515441895,1366,1
324,quadbright,15.0,11,1,403.2142162322998,403.2120704650879,1431,1
325,quadbright,16.0,14,1,486.27614974975586,486.27400398254395,1254,1
326,quadbright,17.0,11,1,492.34509468078613,492.3410415649414,962,1
327,quadbright,18.0,12,1,499.7668266296387,499.76301193237305,1442,1
328,quadbright,19.0,8,1,1615.0240898132324,1615.020990371704,1161,1
329,quadbright,20.0,15,1,494.2641258239746,494.2619800567627,1383,1
330,quadbright,21.0,8,1,656.9900512695312,656.9809913635254,1386,1
331,quadbright,22.0,11,1,594.2208766937256,594.2189693450928,1384,1
332,quadbright,23.0,15,1,492.7358627319336,492.72799491882324,1322,1
333,quadbright,24.0,8,1,1879.6327114105225,1879.6257972717285,1336,1
334,quadbright,25.0,12,1,725.4600524902344,725.4559993743896,1139,1
335,quadbright,26.0,15,1,692.4858093261719,692.4839019775391,1085,1
336,quadbright,27.0,15,1,783.4961414337158,783.4949493408203,1146,1
337,quadbright,28.0,14,1,592.944860458374,592.9369926452637,1241,1
338,quadbright,29.0,11,0,691.9400691986084,691.9331550598145,909,1
339,quadbright,30.0,21,1,600.4788875579834,600.4729270935059,1083,1
340,quadbright,5.0,2,1,99.37620162963867,887.336254119873,914,1
341,quadbright,6.0,6,0,91.59517288208008,1614.8951053619385,947,1
342,quadbright,7.0,5,1,100.8598804473877,528.4149646759033,1164,1
343,quadbright,8.0,9,1,525.8538722991943,525.8522033691406,812,1
344,quadbright,9.0,5,0,98.56176376342773,825.0808715820312,801,1
345,quadbright,10.0,5,1,493.5619831085205,493.5569763183594,1195,1
346,quadbright,11.0,8,0,1782.763957977295,1782.7558517456055,965,1
347,quadbright,12.0,6,1,791.2530899047852,791.2471294403076,1163,1
348,quadbright,13.0,6,1,517.7211761474609,517.7199840545654,824,1
349,quadbright,14.0,8,1,493.4210777282715,493.41320991516113,1207,1
350,quadbright,15.0,11,1,497.7729320526123,497.7679252624512,1226,1
351,quadbright,16.0,12,1,492.7041530609131,492.70129203796387,1337,1
352,quadbright,17.0,11,1,493.9901828765869,493.9870834350586,985,1
353,quadbright,18.0,12,1,493.3900833129883,493.38483810424805,1117,1
354,quadbright,19.0,6,0,691.493034362793,691.4880275726318,912,1
355,quadbright,20.0,14,1,493.9460754394531,493.93725395202637,1278,1
356,quadbright,21.0,6,1,592.4341678619385,592.4320220947266,1232,1
357,quadbright,22.0,9,1,1187.1633529663086,1187.1602535247803,894,1
358,quadbright,23.0,14,1,496.02508544921875,496.02293968200684,1271,1
359,quadbright,24.0,6,1,889.8200988769531,889.8048400878906,1170,1
360,quadbright,25.0,12,1,1482.8450679779053,1482.8391075134277,1302,1
361,quadbright,26.0,14,1,692.0890808105469,692.0838356018066,1363,1
362,quadbright,27.0,14,1,596.912145614624,596.9090461730957,1145,1
363,quadbright,28.0,13,0,1591.526985168457,1591.5188789367676,955,1
364,quadbright,29.0,12,1,888.8070583343506,888.8058662414551,831,1
365,quadbright,30.0,20,1,593.3129787445068,593.3098793029785,1352,1
366,quadbright,5.0,1,0,98.47402572631836,787.0800495147705,1289,1
367,quadbright,6.0,8,1,98.16598892211914,493.6809539794922,1179,1
368,quadbright,7.0,5,1,98.76513481140137,494.45295333862305,897,1
369,quadbright,8.0,8,1,297.7490425109863,489.8052215576172,1084,1
370,quadbright,9.0,8,1,493.8838481903076,493.880033493042,925,1
371,quadbright,10.0,5,1,494.14873123168945,494.14587020874023,941,1
372,quadbright,11.0,9,1,493.0722713470459,493.06488037109375,1178,1
373,quadbright,12.0,6,1,494.28415298461914,494.2789077758789,1268,1
374,quadbright,13.0,6,0,694.6690082550049,694.6630477905273,886,1
375,quadbright,14.0,8,1,233.74319076538086,2906.147003173828,1132,1
376,quadbright,15.0,9,1,592.1809673309326,592.1750068664551,1173,1
377,quadbright,16.0,12,1,691.9958591461182,691.993236541748,1437,1
378,quadbright,17.0,10,1,486.4051342010498,486.4020347595215,826,1
379,quadbright,18.0,11,1,528.6850929260254,528.6781787872314,1495,1
380,quadbright,19.0,8,1,690.535306930542,690.5252933502197,827,1
381,quadbright,20.0,14,1,494.5688247680664,494.5647716522217,1214,1
382,quadbright,21.0,6,1,789.97802734375,789.9680137634277,1025,1
383,quadbright,22.0,9,1,518.3651447296143,518.3629989624023,1133,1
384,quadbright,23.0,14,0,388.6871337890625,388.685941696167,1147,1
385,quadbright,24.0,6,0,2273.853302001953,2273.8449573516846,959,1
386,quadbright,25.0,11,0,1029.561996459961,1029.5519828796387,858,1
387,quadbright,26.0,14,1,624.1259574890137,624.1190433502197,805,1
388,quadbright,27.0,14,1,889.4269466400146,889.4228935241699,1191,1
389,quadbright,28.0,14,1,1187.6168251037598,1187.6070499420166,1102,1
390,quadbright,29.0,12,1,1089.9789333343506,1089.9770259857178,1082,1
391,quadbright,30.0,20,0,1080.862045288086,1080.8558464050293,862,1
