trial,condition,eccentricity,magnitude,correct,srt_ms,keyboard_rt_ms,pre_change_ms,valid
1,control,5.0,20,1,133.72111320495605,493.3350086212158,1369,1
2,control,6.0,20,1,133.24904441833496,526.7031192779541,990,1
3,control,7.0,20,1,66.91193580627441,394.38676834106445,965,1
4,control,8.0,20,1,68.29500198364258,386.6870403289795,801,1
5,control,9.0,20,1,516.4580345153809,516.4573192596436,1365,1
6,control,10.0,20,1,527.0071029663086,526.9999504089355,1416,1
7,control,11.0,20,1,537.0228290557861,537.0209217071533,800,1
8,control,12.0,20,1,526.1309146881104,526.1259078979492,968,1
9,control,13.0,20,1,396.4409828186035,396.4400291442871,1262,1
10,control,14.0,20,1,493.1509494781494,493.1490421295166,1388,1
11,control,15.0,20,1,482.9409122467041,482.9399585723877,1031,1
12,control,16.0,20,1,460.78991889953613,460.7868194580078,1282,1
13,control,17.0,20,1,725.6500720977783,725.6460189819336,1404,1
14,control,18.0,20,1,526.9360542297363,526.9351005554199,942,1
15,control,19.0,20,1,584.442138671875,584.4409465789795,1020,0
16,control,19.0,20,1,461.9019031524658,461.9009494781494,937,1
17,control,20.0,20,1,528.5398960113525,528.5389423370361,1466,1
18,control,21.0,20,1,394.0930366516113,394.0892219543457,1229,1
19,control,22.0,20,1,461.81297302246094,461.8077278137207,1062,1
20,control,23.0,20,1,759.4277858734131,759.4268321990967,1109,1
21,control,24.0,20,1,459.6831798553467,459.67793464660645,1165,1
22,control,25.0,20,1,527.2603034973145,527.2581577301025,1332,1
23,control,26.0,20,1,584.636926651001,584.6359729766846,972,1
24,control,27.0,20,1,659.4128608703613,659.4088077545166,913,1
25,control,28.0,20,0,2584.6199989318848,2584.61594581604,1475,1
26,control,29.0,20,1,989.7890090942383,989.7801876068115,1395,1
27,control,30.0,20,0,2254.796028137207,2254.793167114258,1362,1
28,control,5.0,20,1,65.71006774902344,461.12895011901855,1168,1
29,control,6.0,20,1,132.13205337524414,593.5039520263672,1287,1
30,control,7.0,20,1,66.71309471130371,395.7040309906006,842,1
31,control,8.0,20,1,461.7891311645508,461.7810249328613,1248,1
32,control,9.0,20,1,593.8801765441895,593.8770771026611,925,1
33,control,10.0,20,1,593.8401222229004,593.839168548584,1471,1
34,control,11.0,20,1,462.53395080566406,462.53275871276855,1400,1
35,control,12.0,20,1,526.9858837127686,526.9811153411865,1242,1
36,control,13.0,20,1,462.10408210754395,462.10289001464844,1475,1
37,control,14.0,20,1,525.9561538696289,525.9501934051514,1446,1
38,control,15.0,20,1,471.0121154785156,471.0090160369873,1184,1
39,control,16.0,20,1,426.6788959503174,426.67198181152344,978,1
40,control,17.0,20,1,824.0420818328857,824.0389823913574,1390,1
41,control,18.0,20,1,559.9000453948975,559.8959922790527,1351,1
42,control,19.0,20,1,518.3300971984863,518.3300971984863,905,1
43,control,20.0,20,1,527.0271301269531,527.0242691040039,1290,1
44,control,21.0,20,1,395.704984664917,395.7040309906006,1304,1
45,control,22.0,20,1,659.6670150756836,659.653902053833,1405,1
46,control,23.0,20,1,460.4001045227051,460.39485931396484,1335,1
47,control,24.0,20,1,583.43505859375,583.4338665008545,1197,1
48,control,25.0,20,1,603.4150123596191,603.4040451049805,1146,1
49,control,26.0,20,1,594.0070152282715,594.0060615539551,1077,1
50,control,27.0,20,1,601.0041236877441,601.0010242462158,1454,1
51,control,28.0,23,0,2308.3817958831787,2308.3767890930176,1033,1
52,control,29.0,20,0,3266.1662101745605,3266.163110733032,1489,1
53,control,30.0,23,0,2867.349147796631,2867.3431873321533,1418,1
54,control,5.0,17,1,65.63711166381836,426.9230365753174,1114,1
55,control,6.0,17,1,133.29505920410156,527.7390480041504,999,1
56,control,7.0,17,1,206.0530185699463,998.2037544250488,1398,1
57,control,8.0,17,1,132.02571868896484,461.0590934753418,1163,1
58,control,9.0,17,1,493.7100410461426,493.70884895324707,1413,1
59,control,10.0,17,1,450.22106170654297,450.22010803222656,1464,1
60,control,11.0,17,1,197.34501838684082,624.0131855010986,800,1
61,control,12.0,17,1,460.71887016296387,460.71386337280273,912,1
62,control,13.0,17,1,649.5988368988037,649.5978832244873,1155,1
63,control,14.0,17,1,491.31083488464355,491.30868911743164,1186,1
64,control,15.0,17,1,592.3449993133545,592.3380851745605,1121,1
65,control,16.0,17,1,461.8239402770996,461.8222713470459,859,1
66,control,17.0,17,1,461.37094497680664,461.3687992095947,1128,1
67,control,18.0,17,1,602.4589538574219,602.4560928344727,1175,1
68,control,19.0,17,0,1507.8909397125244,1507.890224456787,1021,1
69,control,20.0,17,1,526.6623497009277,526.6611576080322,928,1
70,control,21.0,17,1,483.94083976745605,483.93964767456055,1053,1
71,control,22.0,17,1,1229.83717918396,1229.8328876495361,1149,1
72,control,23.0,17,1,614.4602298736572,614.4592761993408,1425,1
73,control,24.0,17,1,559.7331523895264,559.7279071807861,1024,1
74,control,25.0,17,1,625.5578994750977,625.5550384521484,1361,1
75,control,26.0,17,1,460.67094802856445,460.66808700561523,1084,1
76,control,27.0,17,1,725.4152297973633,725.412130355835,1365,1
77,control,28.0,26,1,528.7530422210693,528.7520885467529,1225,1
78,control,29.0,23,0,4590.92903137207,4590.927839279175,1268,1
79,control,30.0,26,0,3128.0221939086914,3128.021001815796,1031,1
80,control,5.0,17,1,65.71698188781738,461.57169342041016,1119,1
81,control,6.0,17,1,66.36476516723633,462.1996879577637,1369,1
82,control,7.0,17,1,166.90587997436523,394.258975982666,1412,1
83,control,8.0,17,1,395.1139450073242,395.1001167297363,1248,1
84,control,9.0,17,1,394.0129280090332,394.0088748931885,1237,1
85,control,10.0,17,1,395.39384841918945,395.39289474487305,812,1
86,control,11.0,17,1,383.63194465637207,383.63099098205566,1311,1
87,control,12.0,17,1,459.46693420410156,459.46192741394043,1137,1
88,control,13.0,17,1,461.01903915405273,461.0140323638916,1394,1
89,control,14.0,17,1,424.1757392883301,424.17192459106445,932,1
90,control,15.0,17,1,525.7089138031006,525.6989002227783,829,1
91,control,16.0,17,1,460.1559638977051,460.1469039916992,1386,1
92,control,17.0,17,1,392.0009136199951,391.9999599456787,1109,1
93,control,18.0,17,1,495.43118476867676,495.43118476867676,1456,1
94,control,19.0,20,1,401.6110897064209,401.6079902648926,1148,1
95,control,20.0,17,1,364.2468452453613,364.2458915710449,1443,1
96,control,21.0,17,1,398.632287979126,398.63109588623047,1408,1
97,control,22.0,17,0,1122.2307682037354,1122.230052947998,1343,1
98,control,23.0,17,1,418.9319610595703,418.9310073852539,1144,1
99,control,24.0,17,1,460.05988121032715,460.0558280944824,1481,1
100,control,25.0,17,1,386.08789443969727,386.08694076538086,1485,1
101,control,26.0,17,1,460.8032703399658,460.7970714569092,1369,1
102,control,27.0,17,1,459.5298767089844,459.522008895874,1086,1
103,control,28.0,26,1,593.7788486480713,593.7788486480713,1120,1
104,control,29.0,26,1,460.7429504394531,460.7350826263428,1200,1
105,control,30.0,29,1,492.5088882446289,492.5060272216797,1026,1
106,control,5.0,14,1,95.6118106842041,391.8328285217285,806,1
107,control,6.0,14,1,68.21203231811523,401.8871784210205,1080,1
108,control,7.0,14,1,198.10795783996582,428.4837245941162,848,1
109,control,8.0,14,1,132.89928436279297,463.3653163909912,1127,1
110,control,9.0,14,1,459.9440097808838,459.9339962005615,1072,1
111,control,10.0,14,1,922.9471683502197,922.9450225830078,1075,1
112,control,11.0,14,1,493.56603622436523,493.5600757598877,1181,1
113,control,12.0,14,1,493.1988716125488,493.18885803222656,1496,1
114,control,13.0,14,1,591.2618637084961,591.2580490112305,1050,1
115,control,14.0,14,1,499.47214126586914,499.4699954986572,1267,1
116,control,15.0,14,1,428.41506004333496,428.4098148345947,1311,1
117,control,16.0,14,1,397.6860046386719,397.68314361572266,813,1
118,control,17.0,14,1,656.9998264312744,656.9936275482178,1166,1
119,control,18.0,14,1,660.304069519043,660.3031158447266,1081,1
120,control,19.0,20,1,416.75686836242676,416.75591468811035,1209,1
121,control,20.0,14,1,492.5501346588135,492.54608154296875,1468,1
122,control,21.0,14,1,824.2981433868408,824.2950439453125,1206,1
123,control,22.0,20,1,427.13212966918945,427.1271228790283,1044,1
124,control,23.0,14,1,396.0888385772705,396.0878849029541,982,1
125,control,24.0,14,1,551.7940521240234,551.7921447753906,1060,1
126,control,25.0,14,1,494.66705322265625,494.66490745544434,859,1
127,control,26.0,14,1,492.5241470336914,492.51794815063477,1324,1
128,control,27.0,14,1,494.9042797088623,494.9030876159668,1426,1
129,control,28.0,23,1,726.1157035827637,726.1087894439697,1338,1
130,control,29.0,26,1,663.4988784790039,663.4979248046875,1328,1
131,control,30.0,29,1,590.4707908630371,590.4698371887207,828,1
132,control,5.0,14,1,88.26589584350586,582.9057693481445,851,1
133,control,6.0,14,1,66.14804267883301,384.57584381103516,1420,1
134,control,7.0,14,1,165.8921241760254,439.6700859069824,1053,1
135,control,8.0,14,1,563.1210803985596,563.1160736083984,919,1
136,control,9.0,14,1,484.3487739562988,484.3478202819824,1154,1
137,control,10.0,14,1,334.57088470458984,924.8270988464355,1449,1
138,control,11.0,14,1,989.0210628509521,989.0151023864746,1413,1
139,control,12.0,14,1,394.1318988800049,394.12713050842285,1023,1
140,control,13.0,14,1,494.14730072021484,494.1372871398926,1385,1
141,control,14.0,14,1,428.42698097229004,428.4238815307617,1357,1
142,control,15.0,14,1,427.51479148864746,427.5069236755371,1045,1
143,control,16.0,14,1,592.6809310913086,592.6787853240967,1124,1
144,control,17.0,14,1,393.6150074005127,393.6131000518799,1168,1
145,control,18.0,14,1,559.8750114440918,559.8700046539307,1303,1
146,control,19.0,18,1,426.43117904663086,426.42712593078613,1294,1
147,control,20.0,14,1,558.6566925048828,558.6507320404053,932,1
148,control,21.0,14,1,658.4410667419434,658.4398746490479,1031,1
149,control,22.0,20,1,493.8340187072754,493.83020401000977,1175,1
150,control,23.0,14,1,493.0081367492676,493.00694465637207,847,1
151,control,24.0,14,1,592.7748680114746,592.7722454071045,1157,1
152,control,25.0,14,1,428.3027648925781,428.3018112182617,1488,1
153,control,26.0,14,1,426.6979694366455,426.6929626464844,1315,1
154,control,27.0,14,1,669.2538261413574,669.2521572113037,1462,1
155,control,28.0,23,1,1145.7700729370117,1145.7691192626953,1180,1
156,control,29.0,24,1,495.0110912322998,495.0110912322998,901,1
157,control,30.0,26,0,3485.9273433685303,3485.9261512756348,1466,1
158,control,5.0,11,1,65.7968521118164,989.555835723877,1483,1
159,control,6.0,11,1,66.96224212646484,394.6821689605713,957,1
160,control,7.0,11,1,165.11011123657227,593.9822196960449,1205,1
161,control,8.0,11,1,493.76368522644043,493.7558174133301,1156,1
162,control,9.0,11,1,430.6020736694336,430.59706687927246,816,1
163,control,10.0,11,1,488.436222076416,488.436222076416,816,1
164,control,11.0,11,1,504.8987865447998,504.8959255218506,1237,1
165,control,12.0,11,1,561.4509582519531,561.4428520202637,1195,1
166,control,13.0,11,1,493.8828945159912,493.87502670288086,1070,1
167,control,14.0,11,1,1317.7368640899658,1317.7320957183838,1246,1
168,control,15.0,11,1,566.9360160827637,566.931962966919,1252,1
169,control,16.0,11,1,503.554105758667,503.5510063171387,1283,1
170,control,17.0,11,1,395.1840400695801,395.18094062805176,1325,1
171,control,18.0,11,1,660.3250503540039,660.31813621521,1270,1
172,control,19.0,18,1,492.9380416870117,492.9361343383789,1281,1
173,control,20.0,11,1,660.6590747833252,660.6581211090088,1268,1
174,control,21.0,11,1,660.6881618499756,660.6740951538086,1081,1
175,control,22.0,18,1,493.32475662231445,493.3209419250488,1349,1
176,control,23.0,11,1,494.78721618652344,494.78602409362793,1332,1
177,control,24.0,11,1,771.5959548950195,771.5940475463867,1130,1
178,control,25.0,11,1,747.8001117706299,747.7989196777344,1260,1
179,control,26.0,11,1,492.44213104248047,492.43807792663574,914,1
180,control,27.0,11,1,658.4041118621826,658.3969593048096,970,1
181,control,28.0,20,1,429.0950298309326,429.08716201782227,1252,1
182,control,29.0,24,1,584.3708515167236,584.3698978424072,878,1
183,control,30.0,29,1,912.4770164489746,912.4758243560791,1277,1
184,control,5.0,11,1,167.65093803405762,593.4162139892578,1255,1
185,control,6.0,11,1,98.75702857971191,592.9999351501465,1428,1
186,control,7.0,11,1,66.71714782714844,395.9343433380127,1053,1
187,control,8.0,11,1,66.72286987304688,494.9378967285156,1323,1
188,control,9.0,11,1,67.5959587097168,395.2140808105469,1405,1
189,control,10.0,11,1,395.9670066833496,395.9660530090332,1360,1
190,control,11.0,11,1,1484.3380451202393,1484.334945678711,1229,1
191,control,12.0,11,1,1428.4708499908447,1428.4639358520508,1098,1
192,control,13.0,11,1,603.0552387237549,603.053092956543,1334,1
193,control,14.0,11,1,493.24727058410645,493.2363033294678,1044,1
194,control,15.0,11,1,1091.2299156188965,1091.2261009216309,1228,1
195,control,16.0,11,1,387.39013671875,387.3891830444336,1103,1
196,control,17.0,11,1,760.0929737091064,760.0882053375244,1281,1
197,control,18.0,11,1,426.44238471984863,426.43213272094727,1016,1
198,control,19.0,17,1,493.8669204711914,493.8628673553467,1228,1
199,control,20.0,11,1,494.83609199523926,494.83537673950195,1430,1
200,control,21.0,11,1,760.1790428161621,760.1768970489502,1461,1
201,control,22.0,18,1,571.4900493621826,571.4879035949707,1417,1
202,control,23.0,11,1,493.65997314453125,493.6559200286865,1252,1
203,control,24.0,11,1,395.68018913269043,395.6789970397949,966,1
204,control,25.0,11,1,496.1991310119629,496.1972236633301,1054,1
205,control,26.0,11,1,430.3929805755615,430.3879737854004,1040,1
206,control,27.0,11,1,495.45884132385254,495.45764923095703,1343,1
207,control,28.0,20,1,496.157169342041,496.1512088775635,1311,1
208,control,29.0,23,1,427.9778003692627,427.9758930206299,802,1
209,control,30.0,29,1,493.5441017150879,493.54004859924316,938,1
210,control,5.0,8,1,90.7142162322998,485.8520030975342,1499,1
211,control,6.0,8,1,99.35212135314941,394.8171138763428,949,1
212,control,7.0,8,1,194.81873512268066,392.37499237060547,1407,1
213,control,8.0,8,1,395.9331512451172,395.92504501342773,1417,1
214,control,9.0,8,0,395.9529399871826,395.9510326385498,965,1
215,control,10.0,8,1,494.016170501709,494.01402473449707,1313,1
216,control,11.0,8,1,394.6681022644043,394.6659564971924,1018,1
217,control,12.0,8,1,192.4459934234619,493.3509826660156,902,1
218,control,13.0,8,1,494.0340518951416,494.0311908721924,1239,1
219,control,14.0,8,1,405.34138679504395,405.3370952606201,1082,1
220,control,15.0,8,1,495.33605575561523,495.333194732666,1454,1
221,control,16.0,8,1,997.9629516601562,997.9581832885742,1172,1
222,control,17.0,8,0,1198.5251903533936,1198.5201835632324,1139,1
223,control,18.0,8,1,594.3810939788818,594.3789482116699,910,1
224,control,19.0,17,1,395.72620391845703,395.7252502441406,1400,1
225,control,20.0,8,1,923.4108924865723,923.4099388122559,968,1
226,control,21.0,8,1,494.7659969329834,494.7638511657715,1416,1
227,control,22.0,17,1,395.30014991760254,395.29919624328613,1002,1
228,control,23.0,8,1,526.1819362640381,526.1807441711426,949,1
229,control,24.0,8,1,625.7839202880859,625.7779598236084,819,1
230,control,25.0,8,1,394.5479393005371,394.5469856262207,933,1
231,control,26.0,8,1,900.9799957275391,900.9726047515869,1030,1
232,control,27.0,8,0,702.5539875030518,702.5449275970459,1066,1
233,control,28.0,17,1,494.02785301208496,494.02403831481934,1298,1
234,control,29.0,23,1,494.97485160827637,494.97389793395996,1090,1
235,control,30.0,27,1,497.41268157958984,497.4098205566406,1405,1
236,control,5.0,8,1,99.25293922424316,396.51989936828613,1265,1
237,control,6.0,8,1,99.23005104064941,525.305986404419,1017,1
238,control,7.0,8,1,99.66111183166504,428.4639358520508,1357,1
239,control,8.0,8,1,98.6170768737793,394.95301246643066,1164,1
240,control,9.0,11,1,593.3229923248291,593.3210849761963,1091,1
241,control,10.0,8,1,394.9241638183594,394.9151039123535,1433,1
242,control,11.0,8,1,395.9240913391113,395.920991897583,1478,1
243,control,12.0,8,1,493.43276023864746,493.4267997741699,1215,1
244,control,13.0,8,1,494.9040412902832,494.9009418487549,1266,1
245,control,14.0,8,1,495.51916122436523,495.5179691314697,1430,1
246,control,15.0,8,1,494.98915672302246,494.98820304870605,1427,1
247,control,16.0,8,1,734.5411777496338,734.5342636108398,881,1
248,control,17.0,11,1,397.4642753601074,397.4621295928955,813,1
249,control,18.0,8,1,496.92702293395996,496.92511558532715,949,1
250,control,19.0,15,1,395.33019065856934,395.3249454498291,1429,1
251,control,20.0,8,1,494.78816986083984,494.78626251220703,1488,1
252,control,21.0,8,1,790.424108505249,790.4181480407715,1380,1
253,control,22.0,17,1,494.1449165344238,494.1439628601074,1326,1
254,control,23.0,8,1,494.1668510437012,494.1668510437012,1324,1
255,control,24.0,8,1,504.21905517578125,504.2152404785156,1011,1
256,control,25.0,8,1,487.19191551208496,487.19000816345215,1287,1
257,control,26.0,8,1,492.33293533325195,492.33007431030273,1462,1
258,control,27.0,11,1,494.51422691345215,494.5111274719238,1468,1
259,control,28.0,17,1,495.3150749206543,495.3141212463379,1081,1
260,control,29.0,21,1,801.1291027069092,801.1269569396973,886,1
261,control,30.0,27,1,691.8551921844482,691.8520927429199,938,1
262,control,5.0,5,1,87.87012100219727,417.8340435028076,1073,1
263,control,6.0,5,1,98.97899627685547,492.7699565887451,1327,1
264,control,7.0,5,1,493.36886405944824,493.358850479126,1301,1
265,control,8.0,5,1,98.38199615478516,493.7589168548584,1023,1
266,control,9.0,11,1,495.5570697784424,495.55015563964844,978,1
267,control,10.0,5,1,498.2469081878662,498.23808670043945,1139,1
268,control,11.0,5,1,397.4568843841553,397.45092391967773,1021,1
269,control,12.0,5,1,483.5929870605469,483.59203338623047,1479,1
270,control,13.0,5,1,595.609188079834,595.6020355224609,1025,1
271,control,14.0,5,1,913.787841796875,913.7868881225586,1212,1
272,control,15.0,5,0,989.3529415130615,989.3491268157959,1457,1
273,control,16.0,5,1,785.2761745452881,785.2749824523926,1192,1
274,control,17.0,11,1,491.0249710083008,491.01996421813965,1441,1
275,control,18.0,5,1,495.2988624572754,495.2969551086426,801,1
276,control,19.0,15,1,484.677791595459,484.6761226654053,1429,1
277,control,20.0,5,1,1386.1887454986572,1386.18803024292,1481,1
278,control,21.0,5,1,593.75,593.7490463256836,896,1
279,control,22.0,15,1,593.8189029693604,593.8138961791992,1382,1
280,control,23.0,5,1,791.0199165344238,791.018009185791,1373,1
281,control,24.0,5,0,1085.8979225158691,1085.8938694000244,1419,1
282,control,25.0,5,1,791.1641597747803,791.15891456604,1376,1
283,control,26.0,5,1,2006.0763359069824,2006.075143814087,999,1
284,control,27.0,11,0,933.0952167510986,933.0880641937256,807,1
285,control,28.0,14,1,625.4949569702148,625.4911422729492,1254,1
286,control,29.0,21,1,723.8829135894775,723.8802909851074,1120,1
287,control,5.0,5,1,101.7758846282959,395.8292007446289,1336,1
288,control,6.0,5,1,125.36001205444336,521.0459232330322,1036,1
289,control,7.0,5,1,99.3490219116211,527.7669429779053,1063,1
290,control,8.0,5,1,426.3570308685303,426.35512351989746,1409,1
291,control,9.0,9,1,494.23789978027344,494.2359924316406,1208,1
292,control,10.0,5,1,596.6758728027344,596.6737270355225,1088,1
293,control,11.0,5,1,494.77410316467285,494.77291107177734,1373,1
294,control,12.0,5,1,1608.72483253479,1608.7241172790527,977,1
295,control,13.0,5,1,628.8259029388428,628.82399559021,883,1
296,control,14.0,5,1,1318.127155303955,1318.1259632110596,1413,1
297,control,15.0,8,1,520.5211639404297,520.5199718475342,886,1
298,control,16.0,5,1,1417.8731441497803,1417.8709983825684,1140,1
299,control,17.0,9,1,494.5259094238281,494.5201873779297,1226,1
300,control,18.0,5,1,528.8519859313965,528.8469791412354,856,1
301,control,19.0,14,1,494.1539764404297,494.14920806884766,1449,1
302,control,20.0,5,1,592.8990840911865,592.8950309753418,1479,1
303,control,21.0,5,0,890.9950256347656,890.9909725189209,1138,1
304,control,22.0,15,1,527.137041091919,527.134895324707,1360,1
305,control,23.0,5,1,726.1302471160889,726.1271476745605,995,1
306,control,24.0,8,1,493.7019348144531,493.6978816986084,923,1
307,control,25.0,5,0,1175.544023513794,1175.5430698394775,1456,1
308,control,26.0,5,1,1175.719976425171,1175.7190227508545,1491,1
309,control,27.0,12,1,821.998119354248,821.9950199127197,902,1
310,control,28.0,14,1,557.8582286834717,557.8501224517822,1330,1
311,control,29.0,20,1,659.4128608703613,659.4119071960449,1125,1
312,control,5.0,2,1,98.66189956665039,758.1701278686523,1184,1
313,control,6.0,2,0,97.48101234436035,1020.3351974487305,823,1
314,control,7.0,2,0,97.7928638458252,813.6739730834961,1483,1
315,control,8.0,2,1,1078.5789489746094,1078.5789489746094,1482,1
316,control,9.0,9,1,100.3580093383789,659.8811149597168,1455,1
317,control,10.0,2,1,748.258113861084,748.2569217681885,1345,1
318,control,11.0,2,0,1054.9230575561523,1054.9209117889404,1017,1
319,control,12.0,2,1,989.7158145904541,989.7148609161377,1456,1
320,control,13.0,2,0,748.7292289733887,748.7282752990723,806,1
321,control,14.0,2,1,659.8269939422607,659.822940826416,831,1
322,control,15.0,8,1,528.0418395996094,528.0361175537109,989,1
323,control,16.0,2,1,583.6992263793945,583.6982727050781,1423,1
324,control,17.0,9,1,459.72585678100586,459.72585678100586,1158,1
325,control,18.0,2,1,1120.4149723052979,1120.4137802124023,1471,1
326,control,19.0,14,1,526.2110233306885,526.2031555175781,1181,1
327,control,20.0,2,0,729.3798923492432,729.3779850006104,1045,1
328,control,21.0,8,1,527.4999141693115,527.4958610534668,1088,1
329,control,22.0,14,1,471.6529846191406,471.6479778289795,990,1
330,control,23.0,2,1,679.7308921813965,679.7299385070801,870,1
331,control,24.0,8,1,759.2198848724365,759.2148780822754,894,1
332,control,25.0,8,0,1243.6761856079102,1243.6749935150146,802,1
333,control,26.0,2,0,760.0572109222412,760.0481510162354,1332,1
334,control,27.0,12,1,1060.5230331420898,1060.520887374878,1028,1
335,control,28.0,11,0,691.0820007324219,691.0769939422607,1007,1
336,control,29.0,20,1,518.226146697998,518.2249546051025,1207,1
337,control,5.0,2,0,92.8487777709961,1211.2560272216797,929,1
338,control,6.0,5,1,164.82186317443848,394.4828510284424,911,1
339,control,7.0,5,1,594.8641300201416,594.8600769042969,1392,1
340,control,8.0,2,1,54.92877960205078,515.902042388916,1150,1
341,control,9.0,8,1,66.83802604675293,438.3969306945801,1192,1
342,control,10.0,2,1,593.9490795135498,593.9469337463379,1298,1
343,control,11.0,5,1,528.6300182342529,528.6290645599365,1209,1
344,control,12.0,2,1,823.9569664001465,823.9548206329346,1392,1
345,control,13.0,5,1,1703.9899826049805,1703.989028930664,855,1
346,control,14.0,2,1,825.6609439849854,825.6580829620361,1064,1
347,control,15.0,6,1,528.0230045318604,528.022050857544,1328,1
348,control,16.0,2,0,888.3728981018066,888.3671760559082,1023,1
349,control,17.0,8,1,597.6011753082275,597.5990295410156,807,1
350,control,18.0,2,1,1123.3079433441162,1123.3060359954834,1045,1
351,control,19.0,12,1,438.71593475341797,438.71092796325684,1121,1
352,control,20.0,5,1,626.3031959533691,626.2991428375244,875,1
353,control,21.0,8,1,427.51312255859375,427.51193046569824,1405,1
354,control,22.0,14,1,439.12506103515625,439.1200542449951,1362,1
355,control,23.0,2,1,878.7178993225098,878.7169456481934,1493,1
356,control,24.0,6,1,582.7882289886475,582.787036895752,1470,1
357,control,25.0,11,1,626.7938613891602,626.7919540405273,958,1
358,control,26.0,5,0,657.6709747314453,657.6666831970215,908,1
359,control,27.0,11,1,723.3891487121582,723.3841419219971,1153,1
360,control,28.0,14,1,592.7927494049072,592.7879810333252,1399,1
361,control,29.0,18,1,427.9298782348633,427.92510986328125,1329,1
362,control,5.0,5,1,98.67596626281738,461.43388748168945,852,1
363,control,6.0,5,1,164.992094039917,582.2741985321045,1421,1
364,control,7.0,5,1,99.09701347351074,461.475133895874,1409,1
365,control,8.0,1,0,65.73009490966797,945.7111358642578,1002,1
366,control,9.0,8,1,523.4220027923584,523.413896560669,959,1
367,control,10.0,1,0,1065.842866897583,1065.8411979675293,1375,1
368,control,11.0,5,1,461.4241123199463,461.4231586456299,1074,1
369,control,12.0,1,1,749.5748996734619,749.5737075805664,1305,1
370,control,13.0,5,1,593.5788154602051,593.5757160186768,1066,1
371,control,14.0,1,0,922.3229885101318,922.3182201385498,1338,1
372,control,15.0,6,1,515.5062675476074,515.5050754547119,834,1
373,control,16.0,5,1,528.1190872192383,528.1038284301758,1483,1
374,control,17.0,8,1,582.8568935394287,582.8559398651123,974,1
375,control,18.0,1,1,716.0940170288086,716.0930633544922,1393,1
376,control,19.0,12,1,463.95421028137207,463.95325660705566,1081,1
377,control,20.0,5,0,823.6689567565918,823.6651420593262,1394,1
378,control,21.0,6,1,395.85304260253906,395.85208892822266,1140,1
379,control,22.0,12,1,524.8792171478271,524.8770713806152,1366,1
380,control,23.0,1,1,659.8689556121826,659.8680019378662,1007,1
381,control,24.0,6,0,602.7419567108154,602.7400493621826,1273,1
382,control,25.0,11,1,594.4192409515381,594.4180488586426,1213,1
383,control,26.0,8,1,528.480052947998,528.4781455993652,889,1
384,control,27.0,11,1,528.29909324646,528.292179107666,932,1
1,quadbright,5.0,20,1,65.72389602661133,461.641788482666,1356,1
2,quadbright,6.0,20,1,66.18785858154297,397.3119258880615,1067,1
3,quadbright,7.0,20,1,66.77675247192383,1527.8747081756592,1114,1
4,quadbright,8.0,20,1,134.8109245300293,451.5249729156494,995,1
5,quadbright,9.0,20,1,397.37772941589355,397.37391471862793,1107,1
6,quadbright,10.0,20,1,395.77293395996094,395.77293395996094,845,1
7,quadbright,11.0,20,1,396.636962890625,396.63195610046387,1138,1
8,quadbright,12.0,20,1,450.0398635864258,450.0386714935303,1393,1
9,quadbright,13.0,20,1,593.6987400054932,593.695878982544,1303,1
10,quadbright,14.0,20,1,922.5339889526367,922.5289821624756,1411,1
11,quadbright,15.0,20,1,450.15788078308105,450.15692710876465,1094,1
12,quadbright,16.0,20,1,659.6133708953857,659.6052646636963,1043,1
13,quadbright,17.0,20,1,527.0740985870361,527.0698070526123,1464,1
14,quadbright,18.0,20,1,490.5209541320801,490.5200004577637,1041,1
15,quadbright,19.0,20,1,426.2199401855469,426.21302604675293,1408,1
16,quadbright,20.0,20,1,462.16583251953125,462.16511726379395,1167,1
17,quadbright,21.0,20,1,395.63703536987305,395.63488960266113,1027,1
18,quadbright,22.0,20,1,600.2240180969238,600.2151966094971,894,1
19,quadbright,23.0,20,1,527.0919799804688,527.0898342132568,954,1
20,quadbright,24.0,20,1,800.3261089324951,800.3239631652832,1262,1
21,quadbright,25.0,20,1,528.5670757293701,528.5639762878418,1219,1
22,quadbright,26.0,20,1,469.36702728271484,469.3632125854492,832,1
23,quadbright,27.0,20,0,1747.7140426635742,1747.7097511291504,1460,1
24,quadbright,28.0,20,1,714.3537998199463,714.3528461456299,1044,1
25,quadbright,29.0,20,0,1386.6050243377686,1386.5978717803955,1021,1
26,quadbright,30.0,20,0,1407.8409671783447,1407.8400135040283,1013,1
27,quadbright,5.0,20,1,66.17021560668945,394.20008659362793,1027,1
28,quadbright,6.0,20,1,65.51194190979004,526.2470245361328,1030,1
29,quadbright,7.0,20,1,64.99004364013672,525.0029563903809,967,1
30,quadbright,8.0,20,1,461.67874336242676,461.67778968811035,1126,1
31,quadbright,9.0,20,1,132.26699829101562,393.71609687805176,1311,1
32,quadbright,10.0,20,1,599.3609428405762,599.3578433990479,1223,1
33,quadbright,11.0,20,1,527.5559425354004,527.5509357452393,1119,1
34,quadbright,12.0,20,1,463.9129638671875,463.9091491699219,830,1
35,quadbright,13.0,20,1,691.3032531738281,691.2992000579834,1097,1
36,quadbright,14.0,20,1,659.5239639282227,659.5211029052734,1105,1
37,quadbright,15.0,20,1,526.9041061401367,526.9002914428711,884,1
38,quadbright,16.0,20,1,626.2650489807129,626.2640953063965,1472,1
39,quadbright,17.0,20,1,536.7679595947266,536.7648601531982,1103,1
40,quadbright,18.0,20,1,583.3251476287842,583.3239555358887,1193,1
41,quadbright,19.0,20,1,473.26016426086426,473.2542037963867,1449,1
42,quadbright,20.0,20,1,528.4678936004639,528.4671783447266,1140,1
43,quadbright,21.0,20,1,461.81392669677734,461.81297302246094,1267,1
44,quadbright,22.0,20,1,527.277946472168,527.2760391235352,1006,1
45,quadbright,23.0,20,1,529.0019512176514,528.9959907531738,973,1
46,quadbright,24.0,20,1,595.8969593048096,595.8929061889648,1172,1
47,quadbright,25.0,20,1,527.7109146118164,527.7090072631836,1244,1
48,quadbright,26.0,20,1,745.9390163421631,745.9378242492676,995,1
49,quadbright,27.0,23,1,1065.1299953460693,1065.1249885559082,1204,1
50,quadbright,28.0,20,0,3001.582145690918,3001.579999923706,856,1
51,quadbright,29.0,23,1,988.4169101715088,988.4159564971924,1119,1
52,quadbright,30.0,23,0,1617.445945739746,1617.4380779266357,1241,1
53,quadbright,5.0,17,1,68.98307800292969,403.14507484436035,1372,1
54,quadbright,6.0,17,1,132.54690170288086,526.9839763641357,927,1
55,quadbright,7.0,17,1,131.2539577484131,461.32683753967285,829,1
56,quadbright,8.0,17,1,65.59205055236816,462.02588081359863,1373,1
57,quadbright,9.0,17,1,526.34596824646,526.3440608978271,1219,1
58,quadbright,10.0,17,1,460.91508865356445,460.91294288635254,1337,1
59,quadbright,11.0,17,1,459.5057964324951,459.5041275024414,1038,1
60,quadbright,12.0,17,1,626.1937618255615,626.1868476867676,872,1
61,quadbright,13.0,17,1,824.1429328918457,824.1398334503174,1443,1
62,quadbright,14.0,17,1,757.4820518493652,757.4799060821533,1009,1
63,quadbright,15.0,17,1,946.0389614105225,946.038007736206,1020,1
64,quadbright,16.0,17,1,557.6508045196533,557.6438903808594,1046,1
65,quadbright,17.0,17,1,859.8787784576416,859.8768711090088,1267,1
66,quadbright,18.0,17,1,467.4839973449707,467.4818515777588,1305,1
67,quadbright,19.0,17,1,659.8520278930664,659.8451137542725,1340,1
68,quadbright,20.0,17,1,602.6029586791992,602.597713470459,1280,1
69,quadbright,21.0,17,1,495.0389862060547,495.0380325317383,848,1
70,quadbright,22.0,17,1,856.0609817504883,856.05788230896,1271,1
71,quadbright,23.0,17,1,517.7199840545654,517.7178382873535,1020,1
72,quadbright,24.0,17,1,559.0996742248535,559.0958595275879,1213,1
73,quadbright,25.0,17,1,471.73476219177246,471.7288017272949,919,1
74,quadbright,26.0,17,1,526.8311500549316,526.8290042877197,852,1
75,quadbright,27.0,23,1,526.5109539031982,526.508092880249,1498,1
76,quadbright,28.0,23,1,593.376874923706,593.3761596679688,882,1
77,quadbright,29.0,23,0,1615.4460906982422,1615.4329776763916,1100,1
78,quadbright,30.0,26,1,690.4430389404297,690.4399394989014,1308,1
79,quadbright,5.0,17,1,54.293155670166016,351.01914405822754,1382,1
80,quadbright,6.0,17,1,99.90930557250977,471.743106842041,1458,1
81,quadbright,7.0,17,1,65.99879264831543,362.3700141906738,1443,1
82,quadbright,8.0,17,1,98.46234321594238,393.9683437347412,1467,1
83,quadbright,9.0,17,1,67.09909439086914,362.71119117736816,1141,1
84,quadbright,10.0,17,1,461.0886573791504,461.08484268188477,1386,1
85,quadbright,11.0,17,1,428.0672073364258,428.06339263916016,1156,1
86,quadbright,12.0,17,1,691.5321350097656,691.5268898010254,1250,1
87,quadbright,13.0,17,1,427.98495292663574,427.9818534851074,865,1
88,quadbright,14.0,17,1,460.0367546081543,460.02984046936035,965,1
89,quadbright,15.0,17,1,362.0140552520752,362.0119094848633,1386,1
90,quadbright,16.0,17,1,615.9989833831787,615.9980297088623,1308,1
91,quadbright,17.0,17,1,561.4078044891357,561.3987445831299,1273,1
92,quadbright,18.0,17,1,459.6579074859619,459.6560001373291,1327,1
93,quadbright,19.0,17,1,460.39342880249023,460.3903293609619,1173,1
94,quadbright,20.0,17,1,399.52802658081055,399.52683448791504,916,1
95,quadbright,21.0,17,1,538.5439395904541,538.5422706604004,1097,1
96,quadbright,22.0,17,1,393.5830593109131,393.57995986938477,1141,1
97,quadbright,23.0,17,1,406.74304962158203,406.7389965057373,1162,1
98,quadbright,24.0,17,1,516.3528919219971,516.3519382476807,1064,1
99,quadbright,25.0,17,1,394.2289352416992,394.2251205444336,1153,1
100,quadbright,26.0,17,1,394.6418762207031,394.6397304534912,1314,1
101,quadbright,27.0,20,1,603.8150787353516,603.8081645965576,869,1
102,quadbright,28.0,23,1,759.7320079803467,759.7289085388184,1427,1
103,quadbright,29.0,26,1,2266.7369842529297,2266.7360305786133,965,1
104,quadbright,30.0,26,0,857.1720123291016,857.1691513061523,1249,1
105,quadbright,5.0,14,1,99.77984428405762,462.25595474243164,954,1
106,quadbright,6.0,14,1,66.01309776306152,990.1392459869385,1081,1
107,quadbright,7.0,14,1,67.57402420043945,338.34290504455566,844,1
108,quadbright,8.0,14,1,54.13818359375,415.9102439880371,1085,1
109,quadbright,9.0,14,1,392.95077323913574,392.9457664489746,810,1
110,quadbright,10.0,14,1,500.5059242248535,500.5021095275879,1415,1
111,quadbright,11.0,14,1,593.1668281555176,593.1620597839355,1372,1
112,quadbright,12.0,14,1,428.7998676300049,428.7989139556885,1489,1
113,quadbright,13.0,14,1,493.2999610900879,493.29590797424316,1024,1
114,quadbright,14.0,14,1,494.53091621398926,494.52877044677734,958,1
115,quadbright,15.0,14,1,494.80414390563965,494.80199813842773,1123,1
116,quadbright,16.0,14,1,660.161018371582,660.1600646972656,1065,1
117,quadbright,17.0,14,1,592.2930240631104,592.2858715057373,840,1
118,quadbright,18.0,14,1,757.6498985290527,757.6429843902588,1126,1
119,quadbright,19.0,14,1,395.23887634277344,395.2357769012451,1028,1
120,quadbright,20.0,14,1,499.3457794189453,499.3407726287842,849,1
121,quadbright,21.0,14,1,728.6872863769531,728.6791801452637,1120,1
122,quadbright,22.0,14,1,594.4929122924805,594.491720199585,960,1
123,quadbright,23.0,14,1,424.6499538421631,424.64518547058105,1091,1
124,quadbright,24.0,14,1,583.2860469818115,583.2860469818115,1346,1
125,quadbright,25.0,14,1,406.1098098754883,406.10671043395996,1167,1
126,quadbright,26.0,14,1,1485.6860637664795,1485.67795753479,1422,1
127,quadbright,27.0,20,1,988.8713359832764,988.8691902160645,1350,1
128,quadbright,28.0,21,1,603.7459373474121,603.7411689758301,1324,1
129,quadbright,29.0,26,1,1145.0591087341309,1145.0581550598145,1430,1
130,quadbright,30.0,29,0,2510.0479125976562,2510.0460052490234,1168,1
131,quadbright,5.0,14,0,65.68408012390137,396.09503746032715,1431,1
132,quadbright,6.0,14,1,607.1088314056396,607.1059703826904,1336,1
133,quadbright,7.0,14,1,67.85464286804199,397.1529006958008,1066,1
134,quadbright,8.0,14,1,495.2578544616699,495.2569007873535,1263,1
135,quadbright,9.0,14,1,329.99300956726074,329.99181747436523,859,1
136,quadbright,10.0,14,1,428.4210205078125,428.4200668334961,1459,1
137,quadbright,11.0,14,1,394.9248790740967,394.9236869812012,964,1
138,quadbright,12.0,14,1,396.00300788879395,395.9989547729492,1132,1
139,quadbright,13.0,14,1,484.1737747192383,484.17162895202637,876,1
140,quadbright,14.0,14,1,933.6791038513184,933.6769580841064,910,1
141,quadbright,15.0,14,1,494.37808990478516,494.37499046325684,1399,1
142,quadbright,16.0,14,0,1054.9712181091309,1054.9662113189697,1488,1
143,quadbright,17.0,14,1,329.8368453979492,329.8361301422119,1139,1
144,quadbright,18.0,14,1,494.68183517456055,494.68111991882324,1329,1
145,quadbright,19.0,14,1,493.1209087371826,493.1068420410156,1395,1
146,quadbright,20.0,14,1,491.6799068450928,491.671085357666,1311,1
147,quadbright,21.0,14,1,658.5462093353271,658.5409641265869,1380,1
148,quadbright,22.0,14,1,426.79286003112793,426.7899990081787,1082,1
149,quadbright,23.0,14,1,329.6840190887451,329.6821117401123,1076,1
150,quadbright,24.0,14,1,979.590892791748,979.5901775360107,1259,1
151,quadbright,25.0,14,1,1097.6037979125977,1097.6009368896484,935,1
152,quadbright,26.0,14,0,1253.5631656646729,1253.5600662231445,1282,1
153,quadbright,27.0,17,0,924.231767654419,924.224853515625,1284,1
154,quadbright,28.0,21,1,659.8062515258789,659.8050594329834,1390,1
155,quadbright,29.0,24,1,660.3090763092041,660.3052616119385,993,1
156,quadbright,30.0,30,1,986.4559173583984,986.4490032196045,1277,1
157,quadbright,5.0,17,1,66.17116928100586,492.6180839538574,1190,1
158,quadbright,6.0,11,1,66.43033027648926,504.23431396484375,1269,1
159,quadbright,7.0,11,1,731.4329147338867,731.4310073852539,1230,1
160,quadbright,8.0,11,1,165.10915756225586,494.66514587402344,1002,1
161,quadbright,9.0,11,1,660.0580215454102,660.0539684295654,990,1
162,quadbright,10.0,11,1,560.9090328216553,560.9080791473389,1324,1
163,quadbright,11.0,11,1,669.3110466003418,669.3058013916016,1499,1
164,quadbright,12.0,11,1,493.304967880249,493.29590797424316,1454,1
165,quadbright,13.0,11,1,911.3249778747559,911.3240242004395,1491,1
166,quadbright,14.0,11,1,502.5198459625244,502.5138854980469,963,1
167,quadbright,15.0,11,1,758.3091259002686,758.3081722259521,1341,1
168,quadbright,16.0,17,1,592.6609039306641,592.6578044891357,1136,1
169,quadbright,17.0,11,1,428.4989833831787,428.4989833831787,1235,1
170,quadbright,18.0,11,1,659.7952842712402,659.7952842712402,1158,1
171,quadbright,19.0,11,1,1923.3999252319336,1923.3942031860352,1440,1
172,quadbright,20.0,11,1,649.1410732269287,649.1401195526123,870,1
173,quadbright,21.0,11,1,501.76477432250977,501.7578601837158,853,1
174,quadbright,22.0,11,1,562.9911422729492,562.9870891571045,1001,1
175,quadbright,23.0,11,1,584.3069553375244,584.306001663208,1441,1
176,quadbright,24.0,11,1,758.7339878082275,758.7330341339111,1065,1
177,quadbright,25.0,11,1,823.9810466766357,823.9791393280029,984,1
178,quadbright,26.0,17,1,658.3826541900635,658.3817005157471,1481,1
179,quadbright,27.0,20,1,758.3167552947998,758.3119869232178,1259,1
180,quadbright,28.0,20,1,494.77410316467285,494.77291107177734,900,1
181,quadbright,29.0,24,1,661.895751953125,661.8938446044922,1305,1
182,quadbright,30.0,30,1,593.5459136962891,593.5449600219727,1349,1
183,quadbright,5.0,17,1,167.00482368469238,429.3379783630371,1164,1
184,quadbright,6.0,11,1,593.1911468505859,593.1901931762695,1389,1
185,quadbright,7.0,11,1,169.8458194732666,498.1539249420166,906,1
186,quadbright,8.0,11,1,648.7889289855957,648.7879753112793,883,1
187,quadbright,9.0,11,1,233.48188400268555,657.7451229095459,1205,1
188,quadbright,10.0,11,1,485.7630729675293,485.7621192932129,1441,1
189,quadbright,11.0,11,1,438.7052059173584,438.7011528015137,1430,1
190,quadbright,12.0,11,1,494.2967891693115,494.2939281463623,873,1
191,quadbright,13.0,11,1,504.971981048584,504.96697425842285,1271,1
192,quadbright,14.0,11,1,395.953893661499,395.9529399871826,1017,1
193,quadbright,15.0,11,0,649.0421295166016,649.0411758422852,924,1
194,quadbright,16.0,17,1,561.6970062255859,561.6960525512695,1461,1
195,quadbright,17.0,11,1,428.70497703552246,428.70306968688965,1464,1
196,quadbright,18.0,11,1,759.0510845184326,759.0439319610596,1091,1
197,quadbright,19.0,11,1,669.6808338165283,669.6751117706299,1239,1
198,quadbright,20.0,11,1,401.28207206726074,401.28111839294434,1359,1
199,quadbright,21.0,11,1,494.37785148620605,494.3728446960449,1165,1
200,quadbright,22.0,11,1,494.2030906677246,494.1980838775635,1062,1
201,quadbright,23.0,11,1,1086.1661434173584,1086.1599445343018,939,1
202,quadbright,24.0,11,1,492.4490451812744,492.4459457397461,1218,1
203,quadbright,25.0,11,1,593.3108329772949,593.3108329772949,814,1
204,quadbright,26.0,17,1,493.6702251434326,493.6671257019043,982,1
205,quadbright,27.0,20,1,494.0781593322754,494.07410621643066,900,1
206,quadbright,28.0,20,1,494.7657585144043,494.7657585144043,1300,1
207,quadbright,29.0,23,1,495.12290954589844,495.12195587158203,1486,1
208,quadbright,30.0,28,1,495.5251216888428,495.51892280578613,1285,1
209,quadbright,5.0,15,1,99.58767890930176,395.59292793273926,1263,1
210,quadbright,6.0,8,1,98.84405136108398,494.8601722717285,920,1
211,quadbright,7.0,8,1,405.11107444763184,405.1060676574707,1274,1
212,quadbright,8.0,8,1,483.8531017303467,483.8521480560303,836,1
213,quadbright,9.0,8,1,284.99507904052734,383.9421272277832,1192,1
214,quadbright,10.0,8,1,484.9400520324707,484.9390983581543,1437,1
215,quadbright,11.0,8,1,501.10697746276855,501.1029243469238,1155,1
216,quadbright,12.0,8,1,696.3050365447998,696.3038444519043,1417,1
217,quadbright,13.0,8,1,1683.0658912658691,1683.06303024292,962,1
218,quadbright,14.0,8,0,1671.9622611999512,1671.9610691070557,1033,1
219,quadbright,15.0,14,1,483.4017753601074,483.400821685791,1194,1
220,quadbright,16.0,15,1,493.1340217590332,493.1299686431885,1270,1
221,quadbright,17.0,8,1,790.316104888916,790.3091907501221,1279,1
222,quadbright,18.0,8,1,880.6703090667725,880.6703090667725,893,1
223,quadbright,19.0,8,0,990.227222442627,990.2222156524658,1124,1
224,quadbright,20.0,8,1,798.0012893676758,797.9981899261475,991,1
225,quadbright,21.0,8,1,792.6368713378906,792.633056640625,1122,1
226,quadbright,22.0,8,1,582.8969478607178,582.8959941864014,990,1
227,quadbright,23.0,8,1,789.9050712585449,789.8960113525391,1472,1
228,quadbright,24.0,8,1,691.6899681091309,691.6890144348145,1166,1
229,quadbright,25.0,8,1,725.1899242401123,725.1877784729004,953,1
230,quadbright,26.0,15,1,493.5498237609863,493.5460090637207,1306,1
231,quadbright,27.0,18,1,494.7338104248047,494.7326183319092,969,1
232,quadbright,28.0,18,1,492.1460151672363,492.1431541442871,1326,1
233,quadbright,29.0,23,1,492.6588535308838,492.65575408935547,1304,1
234,quadbright,30.0,28,1,494.17710304260254,494.1749572753906,878,1
235,quadbright,5.0,15,1,87.74399757385254,482.9838275909424,827,1
236,quadbright,6.0,8,1,100.2969741821289,395.1900005340576,932,1
237,quadbright,7.0,8,1,99.18808937072754,428.0409812927246,1216,1
238,quadbright,8.0,8,1,99.94196891784668,395.5049514770508,1322,1
239,quadbright,9.0,8,1,99.1828441619873,403.6118984222412,1471,1
240,quadbright,10.0,8,1,99.0149974822998,494.8611259460449,896,1
241,quadbright,11.0,8,1,581.7790031433105,581.7790031433105,945,1
242,quadbright,12.0,8,0,880.0408840179443,880.0399303436279,1151,1
243,quadbright,13.0,8,1,794.6569919586182,794.6550846099854,864,1
244,quadbright,14.0,11,1,493.37029457092285,493.366003036499,822,1
245,quadbright,15.0,14,1,493.4651851654053,493.46017837524414,1087,1
246,quadbright,16.0,15,1,493.5150146484375,493.5111999511719,1442,1
247,quadbright,17.0,8,1,780.5099487304688,780.5087566375732,819,1
248,quadbright,18.0,8,1,691.8179988861084,691.8108463287354,1294,1
249,quadbright,19.0,11,1,495.1291084289551,495.1281547546387,1127,1
250,quadbright,20.0,8,1,592.3430919647217,592.339038848877,1487,1
251,quadbright,21.0,8,1,620.0511455535889,620.0501918792725,915,1
252,quadbright,22.0,8,0,714.0140533447266,714.0130996704102,1379,1
253,quadbright,23.0,8,1,681.0181140899658,681.0171604156494,1237,1
254,quadbright,24.0,8,0,880.335807800293,880.3348541259766,1173,1
255,quadbright,25.0,8,0,1021.5520858764648,1021.5470790863037,1348,1
256,quadbright,26.0,15,1,536.6370677947998,536.6311073303223,841,1
257,quadbright,27.0,18,1,493.5302734375,493.52407455444336,883,1
258,quadbright,28.0,18,1,484.10701751708984,484.10630226135254,968,1
259,quadbright,29.0,21,1,595.4289436340332,595.4251289367676,1234,1
260,quadbright,30.0,27,1,592.4043655395508,592.3972129821777,1055,1
261,quadbright,5.0,14,1,95.66497802734375,392.89188385009766,1071,1
262,quadbright,6.0,5,1,97.71895408630371,491.73998832702637,883,1
263,quadbright,7.0,5,1,97.4740982055664,590.6717777252197,1147,1
264,quadbright,8.0,5,1,491.52088165283203,491.5130138397217,1147,1
265,quadbright,9.0,5,0,1592.2091007232666,1592.2040939331055,1049,1
266,quadbright,10.0,5,0,791.6121482849121,791.6100025177002,856,1
267,quadbright,11.0,5,1,799.4570732116699,799.4539737701416,1304,1
268,quadbright,12.0,11,1,593.9171314239502,593.9140319824219,1262,1
269,quadbright,13.0,5,1,699.4140148162842,699.409008026123,991,1
270,quadbright,14.0,11,1,992.3632144927979,992.361307144165,1030,1
271,quadbright,15.0,12,1,500.6599426269531,500.6568431854248,1221,1
272,quadbright,16.0,14,1,425.65107345581055,425.6472587585449,964,1
273,quadbright,17.0,5,1,716.0723209381104,716.0711288452148,1257,1
274,quadbright,18.0,5,0,823.3811855316162,823.3742713928223,1404,1
275,quadbright,19.0,11,1,1296.18501663208,1296.1819171905518,875,1
276,quadbright,20.0,5,0,880.0461292266846,880.0449371337891,1045,1
277,quadbright,21.0,5,1,699.2177963256836,699.211597442627,1338,1
278,quadbright,22.0,11,1,595.818042755127,595.8163738250732,1325,1
279,quadbright,23.0,5,0,634.8621845245361,634.8538398742676,1083,1
280,quadbright,24.0,11,0,826.2920379638672,826.2908458709717,912,1
281,quadbright,25.0,11,1,723.6177921295166,723.6120700836182,1399,1
282,quadbright,26.0,14,1,838.3810520172119,838.3781909942627,1103,1
283,quadbright,27.0,17,1,726.2637615203857,726.2628078460693,1027,1
284,quadbright,28.0,17,1,494.81797218322754,494.8148727416992,953,1
285,quadbright,29.0,21,1,492.6888942718506,492.68102645874023,893,1
286,quadbright,5.0,14,1,98.35505485534668,493.2410717010498,1288,1
287,quadbright,6.0,5,1,98.65283966064453,593.4839248657227,812,1
288,quadbright,7.0,5,1,98.43826293945312,494.2312240600586,1093,1
289,quadbright,8.0,5,1,101.29117965698242,494.124174118042,864,1
290,quadbright,9.0,8,1,594.0768718719482,594.0759181976318,893,1
291,quadbright,10.0,8,1,494.3718910217285,494.3709373474121,819,1
292,quadbright,11.0,5,0,1023.3609676361084,1023.3569145202637,1079,1
293,quadbright,12.0,11,1,790.4188632965088,790.4171943664551,811,1
294,quadbright,13.0,5,0,633.0370903015137,633.0358982086182,1041,1
295,quadbright,14.0,9,1,824.516773223877,824.5158195495605,1367,1
296,quadbright,15.0,12,1,527.2178649902344,527.2159576416016,1051,1
297,quadbright,16.0,14,1,428.1280040740967,428.1270503997803,1408,1
298,quadbright,17.0,5,1,789.9479866027832,789.9460792541504,1146,1
299,quadbright,18.0,8,1,718.2097434997559,718.2090282440186,940,1
300,quadbright,19.0,9,0,791.9759750366211,791.9747829437256,1467,1
301,quadbright,20.0,8,1,791.126012802124,791.1250591278076,1183,1
302,quadbright,21.0,5,1,791.1210060119629,791.1198139190674,843,1
303,quadbright,22.0,11,1,620.6181049346924,620.6169128417969,872,1
304,quadbright,23.0,8,0,823.7769603729248,823.7731456756592,1233,1
305,quadbright,24.0,14,1,590.5578136444092,590.5551910400391,1422,1
306,quadbright,25.0,11,1,582.6740264892578,582.6718807220459,859,1
307,quadbright,26.0,14,1,833.5421085357666,833.5402011871338,827,1
308,quadbright,27.0,17,1,626.0790824890137,626.0738372802734,824,1
309,quadbright,28.0,17,1,593.5461521148682,593.5449600219727,844,1
310,quadbright,29.0,20,1,1178.8060665130615,1178.8039207458496,999,1
311,quadbright,5.0,12,1,99.49517250061035,551.2850284576416,977,1
312,quadbright,6.0,2,1,1187.1490478515625,1187.1440410614014,1489,1
313,quadbright,7.0,2,0,735.4021072387695,735.3971004486084,1223,1
314,quadbright,8.0,2,0,1020.770788192749,1020.7669734954834,1455,1
315,quadbright,9.0,8,1,459.69390869140625,459.6891403198242,1422,1
316,quadbright,10.0,8,1,558.6469173431396,558.643102645874,991,1
317,quadbright,11.0,8,1,429.0001392364502,428.9989471435547,1234,1
318,quadbright,12.0,9,1,727.3483276367188,727.3430824279785,904,1
319,quadbright,13.0,8,0,723.8578796386719,723.8538265228271,1001,1
320,quadbright,14.0,9,0,754.4329166412354,754.431962966919,867,1
321,quadbright,15.0,11,1,658.7388515472412,658.7378978729248,1259,1
322,quadbright,16.0,12,1,616.3389682769775,616.337776184082,1030,1
323,quadbright,17.0,2,0,1278.1789302825928,1278.1779766082764,1050,1
324,quadbright,18.0,8,0,658.6120128631592,658.6081981658936,895,1
325,quadbright,19.0,11,1,725.7809638977051,725.7730960845947,843,1
326,quadbright,20.0,8,0,715.7909870147705,715.7900333404541,923,1
327,quadbright,21.0,2,0,934.0581893920898,934.0522289276123,873,1
328,quadbright,22.0,9,1,657.7811241149902,657.7730178833008,1177,1
329,quadbright,23.0,11,1,727.1349430084229,727.1299362182617,838,1
330,quadbright,24.0,14,1,594.2869186401367,594.2862033843994,914,1
331,quadbright,25.0,9,1,690.1350021362305,690.1330947875977,1376,1
332,quadbright,26.0,12,0,691.7629241943359,691.7619705200195,1328,1
333,quadbright,27.0,15,1,593.34397315979,593.3430194854736,830,1
334,quadbright,28.0,15,0,650.9208679199219,650.91872215271,1249,1
335,quadbright,29.0,20,1,528.4979343414307,528.4948348999023,1322,1
336,quadbright,5.0,12,1,132.36021995544434,527.7361869812012,1104,1
337,quadbright,6.0,2,1,65.80400466918945,956.0232162475586,1217,1
338,quadbright,7.0,5,1,87.87393569946289,515.3779983520508,860,1
339,quadbright,8.0,5,1,229.85410690307617,526.5679359436035,1232,1
340,quadbright,9.0,6,1,427.94013023376465,427.929162979126,1464,1
341,quadbright,10.0,6,1,419.3599224090576,419.3599224090576,1165,1
342,quadbright,11.0,8,1,824.0540027618408,824.0492343902588,1436,1
343,quadbright,12.0,9,1,430.1910400390625,430.1900863647461,1223,1
344,quadbright,13.0,11,1,523.9381790161133,523.9338874816895,1151,1
345,quadbright,14.0,11,0,527.7040004730225,527.7018547058105,1075,1
346,quadbright,15.0,11,1,528.0191898345947,528.0170440673828,1040,1
347,quadbright,16.0,12,1,528.2189846038818,528.2161235809326,1228,1
348,quadbright,17.0,5,0,1054.2619228363037,1054.257869720459,1462,1
349,quadbright,18.0,9,1,747.3070621490479,747.3061084747314,1058,1
350,quadbright,19.0,11,1,528.6328792572021,528.6288261413574,1101,1
351,quadbright,20.0,9,0,965.9640789031982,965.9619331359863,1018,1
352,quadbright,21.0,5,0,593.1861400604248,593.1851863861084,1201,1
353,quadbright,22.0,9,1,537.1661186218262,537.1620655059814,1001,1
354,quadbright,23.0,11,1,516.5407657623291,516.5398120880127,1185,1
355,quadbright,24.0,12,1,429.2023181915283,429.2011260986328,984,1
356,quadbright,25.0,9,1,821.0611343383789,821.058988571167,1446,1
357,quadbright,26.0,14,1,759.3588829040527,759.3517303466797,938,1
358,quadbright,27.0,15,1,1514.4100189208984,1514.4050121307373,948,1
359,quadbright,28.0,17,1,593.3859348297119,593.3797359466553,1427,1
360,quadbright,29.0,18,1,757.1067810058594,757.1039199829102,982,1
361,quadbright,5.0,11,1,66.22004508972168,363.48485946655273,1046,1
362,quadbright,6.0,1,1,67.66629219055176,955.8498859405518,919,1
363,quadbright,7.0,5,1,97.47099876403809,526.7179012298584,855,1
364,quadbright,8.0,5,1,459.320068359375,459.3160152435303,927,1
365,quadbright,9.0,6,1,726.2811660766602,726.2802124023438,1209,1
366,quadbright,10.0,6,1,526.9150733947754,526.9041061401367,1321,1
367,quadbright,11.0,6,1,529.9129486083984,529.9088954925537,1119,1
368,quadbright,12.0,8,1,435.98198890686035,435.9760284423828,1484,1
369,quadbright,13.0,11,1,824.1379261016846,824.1326808929443,894,0
370,quadbright,13.0,11,1,395.51329612731934,395.51329612731934,1338,1
371,quadbright,14.0,12,1,463.6049270629883,463.60111236572266,1457,1
372,quadbright,15.0,9,1,529.2441844940186,529.2401313781738,1239,1
373,quadbright,16.0,11,1,518.895149230957,518.8941955566406,868,1
374,quadbright,17.0,8,0,812.2329711914062,812.2320175170898,1231,1
375,quadbright,18.0,9,1,496.035099029541,496.0329532623291,1079,1
376,quadbright,19.0,10,1,448.8232135772705,448.8232135772705,1055,1
377,quadbright,20.0,11,1,593.9357280731201,593.9338207244873,1441,1
378,quadbright,21.0,8,0,826.2119293212891,826.2081146240234,1221,1
379,quadbright,22.0,8,0,670.5658435821533,670.5629825592041,835,1
380,quadbright,23.0,9,1,527.6021957397461,527.6021957397461,1042,1
381,quadbright,24.0,12,1,747.9259967803955,747.9250431060791,1015,1
382,quadbright,25.0,8,1,692.3611164093018,692.3599243164062,912,1
383,quadbright,26.0,14,1,890.0599479675293,890.0539875030518,1324,1
384,quadbright,27.0,14,0,692.0340061187744,692.0340061187744,1031,1
385,quadbright,28.0,17,0,978.3539772033691,978.3511161804199,860,1
386,quadbright,29.0,18,1,527.6448726654053,527.6379585266113,1183,1
