trial,condition,eccentricity,magnitude,correct,srt_ms,keyboard_rt_ms,pre_change_ms,valid
1,control,5.0,20,1,99.31802749633789,593.6481952667236,942,1
2,control,6.0,20,1,713.202953338623,713.2008075714111,990,1
3,control,7.0,20,1,199.55706596374512,802.9239177703857,1294,1
4,control,8.0,20,1,803.4141063690186,803.408145904541,901,1
5,control,9.0,20,1,99.22575950622559,626.7178058624268,1169,1
6,control,10.0,20,1,719.6199893951416,719.6178436279297,911,1
7,control,11.0,20,1,229.85291481018066,713.7391567230225,1280,1
8,control,12.0,20,1,791.7470932006836,791.7461395263672,1138,1
9,control,13.0,20,1,789.6480560302734,789.6440029144287,1021,1
10,control,14.0,20,1,725.0802516937256,725.0771522521973,843,1
11,control,15.0,20,1,590.4769897460938,590.4757976531982,1129,1
12,control,16.0,20,1,877.5413036346436,877.540111541748,870,1
13,control,17.0,20,1,878.8301944732666,878.8280487060547,813,1
14,control,18.0,20,1,594.4912433624268,594.4890975952148,1190,1
15,control,19.0,20,1,626.8599033355713,626.8599033355713,1433,1
16,control,20.0,20,1,724.2791652679443,724.276065826416,1144,0
17,control,20.0,20,1,890.6888961791992,890.6879425048828,1111,1
18,control,21.0,20,1,879.8611164093018,879.8601627349854,934,1
19,control,22.0,20,0,5410.051107406616,5410.046100616455,1097,0
20,control,22.0,20,1,691.6069984436035,691.6041374206543,1259,1
21,control,23.0,20,1,788.902997970581,788.8989448547363,1039,1
22,control,24.0,20,1,593.8248634338379,593.8239097595215,973,1
23,control,25.0,20,1,800.792932510376,800.7919788360596,1074,1
24,control,26.0,20,1,724.0440845489502,724.0359783172607,1210,1
25,control,27.0,20,1,782.4869155883789,782.4850082397461,1071,1
26,control,28.0,20,1,795.9778308868408,795.975923538208,1243,1
27,control,29.0,20,1,889.0659809112549,889.061689376831,941,1
28,control,30.0,20,1,692.7001476287842,692.6982402801514,1468,1
29,control,5.0,20,1,99.95913505554199,780.8980941772461,1050,1
30,control,6.0,20,1,198.49491119384766,681.466817855835,1480,1
31,control,7.0,20,1,813.0080699920654,813.007116317749,1459,1
32,control,8.0,20,1,690.8891201019287,690.8831596374512,1343,1
33,control,9.0,20,1,780.137300491333,780.1361083984375,1239,1
34,control,10.0,20,1,682.3670864105225,682.366132736206,1399,1
35,control,11.0,20,1,780.0850868225098,780.0838947296143,913,1
36,control,12.0,20,1,625.9667873382568,625.9639263153076,1265,1
37,control,13.0,20,1,825.3319263458252,825.3269195556641,850,1
38,control,14.0,20,1,700.3047466278076,700.3028392791748,835,1
39,control,15.0,20,1,791.2399768829346,791.2368774414062,1023,1
40,control,16.0,20,1,690.0248527526855,690.0179386138916,867,1
41,control,17.0,20,1,901.6330242156982,901.6270637512207,862,1
42,control,18.0,20,1,692.0928955078125,692.0907497406006,1381,1
43,control,19.0,20,1,788.2099151611328,788.2080078125,1462,1
44,control,20.0,20,1,680.5849075317383,680.5839538574219,1136,1
45,control,21.0,20,1,682.4278831481934,682.426929473877,1147,1
46,control,22.0,20,1,692.1463012695312,692.141056060791,862,1
47,control,23.0,20,1,691.3893222808838,691.3852691650391,1045,1
48,control,24.0,20,1,818.5880184173584,818.5858726501465,803,1
49,control,25.0,20,1,889.4672393798828,889.4593715667725,972,1
50,control,26.0,20,0,1286.0076427459717,1286.0028743743896,961,1
51,control,27.0,20,1,792.3679351806641,792.3619747161865,1447,1
52,control,28.0,20,0,1108.6962223052979,1108.6950302124023,880,1
53,control,29.0,20,1,690.8879280090332,690.8838748931885,1480,1
54,control,30.0,20,1,396.69108390808105,396.6832160949707,1280,1
55,control,5.0,17,1,99.67684745788574,691.8079853057861,933,1
56,control,6.0,17,1,691.5271282196045,691.5230751037598,1495,1
57,control,7.0,17,1,189.6209716796875,681.5168857574463,1100,1
58,control,8.0,17,1,714.3440246582031,714.3428325653076,884,1
59,control,9.0,17,1,681.5128326416016,681.5118789672852,879,1
60,control,10.0,17,1,695.3098773956299,695.2941417694092,843,1
61,control,11.0,17,1,594.231128692627,594.2280292510986,964,1
62,control,12.0,17,1,494.488000869751,494.48490142822266,975,1
63,control,13.0,17,1,590.3890132904053,590.3851985931396,811,1
64,control,14.0,17,1,791.2991046905518,791.2960052490234,1185,1
65,control,15.0,17,1,801.551103591919,801.5410900115967,841,1
66,control,16.0,17,1,725.0139713287354,725.0101566314697,1012,1
67,control,17.0,17,1,593.8489437103271,593.8479900360107,1182,1
68,control,18.0,17,1,690.5100345611572,690.5059814453125,1008,1
69,control,19.0,17,1,681.6329956054688,681.6320419311523,947,1
70,control,20.0,17,1,879.4417381286621,879.4400691986084,1473,1
71,control,21.0,17,1,690.748929977417,690.742015838623,1147,1
72,control,22.0,17,1,689.7141933441162,689.7058486938477,1009,1
73,control,23.0,17,1,690.8769607543945,690.8690929412842,821,1
74,control,24.0,17,1,824.9149322509766,824.908971786499,1405,1
75,control,25.0,17,1,713.3960723876953,713.3951187133789,1167,1
76,control,26.0,23,1,879.1558742523193,879.1549205780029,1024,1
77,control,27.0,17,1,582.507848739624,582.5068950653076,1383,1
78,control,28.0,23,1,682.1801662445068,682.1792125701904,1049,1
79,control,29.0,17,1,780.3888320922852,780.3878784179688,1132,1
80,control,30.0,17,1,923.3160018920898,923.3129024505615,1016,1
81,control,5.0,17,1,99.5938777923584,594.7351455688477,1453,1
82,control,6.0,17,1,96.65894508361816,683.4850311279297,982,1
83,control,7.0,17,1,99.4260311126709,591.6042327880859,988,1
84,control,8.0,17,1,495.0089454650879,495.0079917907715,1424,1
85,control,9.0,17,1,691.9870376586914,691.9839382171631,1125,1
86,control,10.0,17,1,582.5977325439453,582.5967788696289,808,1
87,control,11.0,17,1,592.9958820343018,592.9930210113525,1223,1
88,control,12.0,17,1,594.0930843353271,594.0830707550049,914,1
89,control,13.0,17,1,713.2067680358887,713.2058143615723,1198,1
90,control,14.0,17,1,100.31294822692871,692.4479007720947,1242,1
91,control,15.0,17,0,990.0240898132324,990.0169372558594,940,1
92,control,16.0,17,1,591.8910503387451,591.8841361999512,1189,1
93,control,17.0,17,1,719.5730209350586,719.5699214935303,1492,0
94,control,17.0,17,1,988.9068603515625,988.9030456542969,882,1
95,control,18.0,17,1,690.4768943786621,690.4730796813965,1042,1
96,control,19.0,17,1,488.7967109680176,488.7959957122803,1029,1
97,control,20.0,17,1,703.8059234619141,703.8030624389648,1281,1
98,control,21.0,17,1,591.0248756408691,591.0236835479736,1284,1
99,control,22.0,17,1,596.8189239501953,596.8148708343506,1111,0
100,control,22.0,17,1,615.4029369354248,615.4029369354248,985,0
101,control,22.0,17,1,691.3909912109375,691.3859844207764,1174,1
102,control,23.0,17,1,590.8479690551758,590.8479690551758,1170,1
103,control,24.0,17,1,681.8997859954834,681.8990707397461,817,1
104,control,25.0,17,1,681.2829971313477,681.2820434570312,1218,1
105,control,26.0,23,1,692.0230388641357,692.0180320739746,1090,1
106,control,27.0,17,1,891.0279273986816,891.024112701416,1348,1
107,control,28.0,23,1,624.8490810394287,624.8440742492676,864,1
108,control,29.0,17,1,724.7788906097412,724.7731685638428,1227,1
109,control,30.0,17,1,735.1937294006348,735.1846694946289,819,1
110,control,5.0,14,1,731.1198711395264,731.1177253723145,1060,1
111,control,6.0,14,1,198.97174835205078,701.4546394348145,1289,1
112,control,7.0,14,1,703.5701274871826,703.5660743713379,1278,1
113,control,8.0,14,1,96.90999984741211,592.9818153381348,1006,1
114,control,9.0,14,1,583.7666988372803,583.765983581543,1146,1
115,control,10.0,14,1,593.3079719543457,593.3010578155518,1288,1
116,control,11.0,14,1,684.0798854827881,684.0789318084717,1182,1
117,control,12.0,14,1,879.601001739502,879.5998096466064,1223,1
118,control,13.0,14,1,627.352237701416,627.3510456085205,949,1
119,control,14.0,14,1,682.8000545501709,682.7981472015381,1359,1
120,control,15.0,20,1,790.8627986907959,790.8589839935303,947,1
121,control,16.0,14,1,814.1450881958008,814.1441345214844,1133,1
122,control,17.0,14,1,889.113187789917,889.1041278839111,850,1
123,control,18.0,14,1,791.1171913146973,791.111946105957,1417,1
124,control,19.0,14,1,781.5806865692139,781.5799713134766,1016,1
125,control,20.0,14,1,703.1290531158447,703.1230926513672,874,1
126,control,21.0,14,1,690.6278133392334,690.6230449676514,948,1
127,control,22.0,14,1,788.093090057373,788.0899906158447,963,1
128,control,23.0,14,1,485.6550693511963,485.6529235839844,1363,1
129,control,24.0,14,1,583.5258960723877,583.5249423980713,1279,1
130,control,25.0,14,1,703.2492160797119,703.2439708709717,1206,1
131,control,26.0,21,1,724.1549491882324,724.1508960723877,1144,1
132,control,27.0,14,1,681.8239688873291,681.8227767944336,1285,1
133,control,28.0,21,1,898.1962203979492,898.1940746307373,952,1
134,control,29.0,14,1,789.7820472717285,789.7782325744629,806,1
135,control,30.0,14,1,592.879056930542,592.872142791748,838,1
136,control,5.0,14,1,208.27412605285645,507.2791576385498,999,1
137,control,6.0,14,1,726.4237403869629,726.4230251312256,884,1
138,control,7.0,14,1,627.1927356719971,627.1908283233643,1047,1
139,control,8.0,14,1,584.4290256500244,584.428071975708,1456,1
140,control,9.0,14,1,95.83806991577148,591.8338298797607,879,1
141,control,10.0,14,1,590.4557704925537,590.4479026794434,956,1
142,control,11.0,14,1,695.6231594085693,695.6210136413574,1259,1
143,control,12.0,14,1,98.70696067810059,724.6227264404297,919,1
144,control,13.0,14,1,581.8159580230713,581.8150043487549,1465,1
145,control,14.0,14,1,582.7739238739014,582.772970199585,1300,1
146,control,15.0,20,1,593.0171012878418,593.012809753418,846,1
147,control,16.0,14,1,694.3380832672119,694.3359375,1035,1
148,control,17.0,14,1,680.7239055633545,680.7217597961426,1308,1
149,control,18.0,14,1,692.3933029174805,692.3861503601074,1315,1
150,control,19.0,14,1,592.0031070709229,591.9983386993408,1254,1
151,control,20.0,14,1,592.22412109375,592.2229290008545,1174,1
152,control,21.0,14,1,692.2590732574463,692.2509670257568,1264,1
153,control,22.0,14,1,592.6971435546875,592.6921367645264,1028,1
154,control,23.0,14,1,594.1548347473145,594.1529273986816,956,1
155,control,24.0,14,1,692.9800510406494,692.9788589477539,1438,1
156,control,25.0,14,1,493.4241771697998,493.4191703796387,1134,1
157,control,26.0,21,1,823.7199783325195,823.7121105194092,1459,1
158,control,27.0,14,1,1407.9060554504395,1407.905101776123,985,1
159,control,28.0,21,1,592.9248332977295,592.9229259490967,1294,1
160,control,29.0,14,1,605.0288677215576,605.0231456756592,927,1
161,control,30.0,14,1,791.1508083343506,791.144847869873,1441,1
162,control,5.0,11,1,197.5870132446289,688.4899139404297,1347,1
163,control,6.0,11,1,98.2820987701416,584.3729972839355,1372,1
164,control,7.0,11,1,99.03407096862793,792.7422523498535,1186,1
165,control,8.0,11,1,197.48663902282715,583.158016204834,1415,1
166,control,9.0,11,1,493.60084533691406,493.59989166259766,1235,1
167,control,10.0,11,1,591.3748741149902,591.3679599761963,842,1
168,control,11.0,11,1,691.5390491485596,691.5361881256104,1116,1
169,control,12.0,11,1,492.68579483032227,492.6769733428955,1156,1
170,control,13.0,11,1,99.87211227416992,593.0333137512207,908,1
171,control,14.0,11,1,692.4748420715332,692.4731731414795,804,1
172,control,15.0,18,1,596.2560176849365,596.2550640106201,1308,1
173,control,16.0,11,1,690.4129981994629,690.4079914093018,1142,1
174,control,17.0,11,1,726.7587184906006,726.7558574676514,1175,1
175,control,18.0,11,1,495.5248832702637,495.51892280578613,1281,1
176,control,19.0,11,1,494.62103843688965,494.61984634399414,1371,1
177,control,20.0,11,1,879.9901008605957,879.9891471862793,1031,1
178,control,21.0,11,1,691.3840770721436,691.3788318634033,1107,1
179,control,22.0,11,1,692.0247077941895,692.0187473297119,1147,1
180,control,23.0,11,1,681.3511848449707,681.3502311706543,1325,1
181,control,24.0,11,1,782.9060554504395,782.9041481018066,1276,1
182,control,25.0,11,1,690.666913986206,690.6640529632568,966,1
183,control,26.0,20,1,736.7000579833984,736.6929054260254,1378,1
184,control,27.0,11,1,889.3909454345703,889.3871307373047,816,1
185,control,28.0,20,1,625.1592636108398,625.1511573791504,924,1
186,control,29.0,11,1,593.4200286865234,593.4150218963623,1296,1
187,control,30.0,11,1,1078.2999992370605,1078.2990455627441,889,1
188,control,5.0,11,1,625.2450942993164,625.2419948577881,903,1
189,control,6.0,11,1,99.52878952026367,593.7049388885498,1295,1
190,control,7.0,11,1,198.78625869750977,990.1180267333984,1079,1
191,control,8.0,11,1,496.5789318084717,496.57392501831055,1226,1
192,control,9.0,11,1,781.7659378051758,781.7649841308594,990,1
193,control,10.0,11,1,99.74408149719238,593.2140350341797,1389,1
194,control,11.0,11,1,493.4539794921875,493.4499263763428,956,1
195,control,12.0,11,1,1384.7522735595703,1384.74702835083,1416,1
196,control,13.0,11,1,583.5750102996826,583.5740566253662,1366,1
197,control,14.0,11,1,590.0888442993164,590.0857448577881,1308,1
198,control,15.0,18,1,493.59917640686035,493.59607696533203,1031,1
199,control,16.0,11,1,691.7643547058105,691.756010055542,1129,1
200,control,17.0,11,1,780.6730270385742,780.6720733642578,1215,1
201,control,18.0,11,1,790.4350757598877,790.4331684112549,1449,1
202,control,19.0,11,1,692.7750110626221,692.7721500396729,1465,1
203,control,20.0,11,1,691.7228698730469,691.7157173156738,887,1
204,control,21.0,11,1,692.1629905700684,692.1570301055908,1369,1
205,control,22.0,11,1,593.7657356262207,593.7647819519043,1357,1
206,control,23.0,11,1,601.4671325683594,601.464033126831,1380,1
207,control,24.0,11,1,591.8431282043457,591.839075088501,813,1
208,control,25.0,11,1,596.4839458465576,596.4829921722412,857,1
209,control,26.0,20,1,624.1049766540527,624.103307723999,1435,1
210,control,27.0,11,0,1078.9031982421875,1078.902006149292,1224,1
211,control,28.0,20,1,596.9231128692627,596.919059753418,1032,1
212,control,29.0,11,1,913.7299060821533,913.7287139892578,856,1
213,control,30.0,11,0,791.6760444641113,791.6669845581055,1303,1
214,control,5.0,8,1,392.5819396972656,485.81886291503906,1240,1
215,control,6.0,8,1,98.0081558227539,493.7150478363037,1485,1
216,control,7.0,8,1,294.4519519805908,681.6897392272949,1409,1
217,control,8.0,8,1,299.1931438446045,497.44319915771484,1057,1
218,control,9.0,8,1,922.2898483276367,922.2877025604248,1420,1
219,control,10.0,8,1,625.8549690246582,625.8528232574463,882,1
220,control,11.0,8,1,692.8789615631104,692.8770542144775,1097,1
221,control,12.0,8,1,591.4871692657471,591.4850234985352,1186,1
222,control,13.0,8,0,901.9570350646973,901.9548892974854,854,1
223,control,14.0,8,1,559.5169067382812,559.5118999481201,1240,1
224,control,15.0,17,1,493.80040168762207,493.79920959472656,1000,1
225,control,16.0,8,0,897.8769779205322,897.86696434021,913,1
226,control,17.0,8,1,693.1700706481934,693.1672096252441,887,1
227,control,18.0,8,1,811.2151622772217,811.2142086029053,905,1
228,control,19.0,8,1,691.8470859527588,691.8430328369141,906,1
229,control,20.0,8,1,923.9370822906494,923.9299297332764,1445,1
230,control,21.0,8,0,1188.6677742004395,1188.6639595031738,890,1
231,control,22.0,8,1,789.4961833953857,789.4930839538574,1203,1
232,control,23.0,8,0,582.7798843383789,582.7786922454834,1320,1
233,control,24.0,8,0,979.1469573974609,979.144811630249,1234,1
234,control,25.0,8,1,692.7731037139893,692.7669048309326,1131,1
235,control,26.0,18,1,879.4898986816406,879.4889450073242,867,1
236,control,27.0,14,1,1021.0971832275391,1021.0919380187988,1413,0
237,control,27.0,14,1,690.8712387084961,690.8643245697021,1022,1
238,control,28.0,18,1,797.4412441253662,797.4343299865723,1191,1
239,control,29.0,8,1,880.3107738494873,880.3107738494873,1168,1
240,control,30.0,14,1,814.0428066253662,814.0418529510498,1105,1
241,control,5.0,8,1,100.65388679504395,691.5731430053711,953,1
242,control,6.0,8,1,98.6630916595459,593.7249660491943,974,1
243,control,7.0,8,1,201.83897018432617,695.4078674316406,1363,1
244,control,8.0,8,1,99.6241569519043,588.8411998748779,963,1
245,control,9.0,8,1,197.6017951965332,624.8648166656494,1104,0
246,control,9.0,8,1,583.2710266113281,583.2700729370117,1290,1
247,control,10.0,8,1,485.05496978759766,485.05401611328125,1304,1
248,control,11.0,8,1,593.7161445617676,593.7154293060303,1463,1
249,control,12.0,8,1,592.5121307373047,592.5092697143555,1388,1
250,control,13.0,11,1,892.9681777954102,892.9672241210938,996,1
251,control,14.0,8,1,592.5970077514648,592.5931930541992,1196,0
252,control,14.0,8,1,691.3270950317383,691.321849822998,1189,1
253,control,15.0,17,1,722.754716873169,722.7487564086914,1144,1
254,control,16.0,11,1,704.3030261993408,704.2999267578125,1137,1
255,control,17.0,8,1,891.8416500091553,891.8378353118896,1285,1
256,control,18.0,8,1,689.7270679473877,689.7189617156982,1417,1
257,control,19.0,8,1,593.0869579315186,593.0788516998291,1255,0
258,control,19.0,8,1,791.3389205932617,791.3298606872559,1358,1
259,control,20.0,8,1,899.9979496002197,899.9960422515869,1433,0
260,control,20.0,8,1,682.6229095458984,682.621955871582,1138,1
261,control,21.0,11,1,691.8642520904541,691.8599605560303,1212,0
262,control,21.0,11,1,713.4439945220947,713.4430408477783,1350,1
263,control,22.0,8,1,691.6780471801758,691.6759014129639,1012,1
264,control,23.0,11,1,691.6470527648926,691.6439533233643,870,1
265,control,24.0,11,0,987.896203994751,987.8902435302734,853,1
266,control,25.0,8,1,835.1550102233887,835.1497650146484,1002,1
267,control,26.0,18,1,725.6741523742676,725.6712913513184,910,1
268,control,27.0,14,1,583.0080509185791,583.0070972442627,1034,1
269,control,28.0,18,1,923.907995223999,923.9010810852051,951,1
270,control,29.0,8,1,989.3381595611572,989.3290996551514,860,1
271,control,30.0,14,1,1196.634292602539,1196.6280937194824,1103,1
272,control,5.0,5,1,198.4689235687256,688.2638931274414,1155,1
273,control,6.0,5,1,100.03089904785156,1386.125087738037,1497,1
274,control,7.0,5,1,582.4761390686035,582.474946975708,805,1
275,control,8.0,5,1,428.0519485473633,624.748945236206,949,1
276,control,9.0,5,1,99.95579719543457,618.0779933929443,1044,1
277,control,10.0,5,1,626.5661716461182,626.5583038330078,1342,1
278,control,11.0,5,1,695.0769424438477,695.0750350952148,1265,1
279,control,12.0,5,1,626.9328594207764,626.9280910491943,1287,1
280,control,13.0,11,1,593.4159755706787,593.4100151062012,1027,1
281,control,14.0,5,1,988.3511066436768,988.3489608764648,880,1
1,quadbright,5.0,20,1,165.15088081359863,593.4679508209229,951,1
2,quadbright,6.0,20,1,592.756986618042,592.750072479248,807,1
3,quadbright,7.0,20,1,594.3541526794434,594.3522453308105,807,1
4,quadbright,8.0,20,1,604.3698787689209,604.3639183044434,1468,1
5,quadbright,9.0,20,1,891.3319110870361,891.3309574127197,1450,1
6,quadbright,10.0,20,1,703.0231952667236,703.0181884765625,1308,1
7,quadbright,11.0,20,1,881.8931579589844,881.892204284668,823,1
8,quadbright,12.0,20,1,790.2820110321045,790.280818939209,1394,1
9,quadbright,13.0,20,1,697.742223739624,697.7391242980957,1212,1
10,quadbright,14.0,20,1,890.4068470001221,890.4037475585938,1264,1
11,quadbright,15.0,20,1,189.67795372009277,879.5299530029297,1073,1
12,quadbright,16.0,20,1,889.2312049865723,889.228105545044,1338,0
13,quadbright,16.0,20,1,692.1947002410889,692.1918392181396,1121,1
14,quadbright,17.0,20,1,912.3740196228027,912.3728275299072,1013,1
15,quadbright,18.0,20,1,692.5578117370605,692.5530433654785,1079,1
16,quadbright,19.0,20,1,680.0401210784912,680.0391674041748,1392,1
17,quadbright,20.0,20,1,780.3590297698975,780.357837677002,1214,1
18,quadbright,21.0,20,1,812.5,812.5,1032,1
19,quadbright,22.0,20,1,824.1620063781738,824.1610527038574,1348,1
20,quadbright,23.0,20,1,723.5209941864014,723.5128879547119,1450,1
21,quadbright,24.0,20,1,790.7710075378418,790.7681465148926,1193,1
22,quadbright,25.0,20,1,680.8769702911377,680.8760166168213,812,1
23,quadbright,26.0,20,1,724.9693870544434,724.9681949615479,1186,1
24,quadbright,27.0,20,1,2122.3721504211426,2122.3700046539307,1041,0
25,quadbright,27.0,20,1,726.0637283325195,726.0627746582031,1456,1
26,quadbright,28.0,20,1,689.1398429870605,689.1350746154785,1213,1
27,quadbright,29.0,20,1,1672.5327968597412,1672.5318431854248,852,1
28,quadbright,30.0,20,1,1087.7749919891357,1087.7728462219238,963,1
29,quadbright,5.0,20,1,198.44937324523926,692.528247833252,1012,1
30,quadbright,6.0,20,1,99.03407096862793,791.8808460235596,833,1
31,quadbright,7.0,20,1,725.0349521636963,725.0339984893799,809,1
32,quadbright,8.0,20,1,99.26104545593262,693.0389404296875,1425,1
33,quadbright,9.0,20,1,835.9379768371582,835.9329700469971,1163,1
34,quadbright,10.0,20,1,791.7001247406006,791.6970252990723,1055,1
35,quadbright,11.0,20,1,186.42091751098633,780.6961536407471,1034,1
36,quadbright,12.0,20,1,99.20692443847656,781.019926071167,912,1
37,quadbright,13.0,20,1,634.4771385192871,634.4749927520752,808,1
38,quadbright,14.0,20,1,723.5448360443115,723.5369682312012,802,1
39,quadbright,15.0,20,1,683.5300922393799,683.5289001464844,1322,1
40,quadbright,16.0,20,1,692.1777725219727,692.1737194061279,1227,1
41,quadbright,17.0,20,1,692.2469139099121,692.2411918640137,1427,1
42,quadbright,18.0,20,1,779.827356338501,779.8264026641846,1300,1
43,quadbright,19.0,20,1,779.2069911956787,779.2057991027832,1445,1
44,quadbright,20.0,20,1,681.8177700042725,681.8177700042725,1417,1
45,quadbright,21.0,20,1,791.679859161377,791.6779518127441,821,1
46,quadbright,22.0,20,1,585.3099822998047,585.3087902069092,1418,1
47,quadbright,23.0,20,1,781.5349102020264,781.5322875976562,1036,1
48,quadbright,24.0,20,1,713.5870456695557,713.5860919952393,1221,1
49,quadbright,25.0,20,1,1010.4200839996338,1010.4188919067383,987,1
50,quadbright,26.0,20,1,695.2409744262695,695.2400207519531,1298,1
51,quadbright,27.0,20,1,596.4701175689697,596.4689254760742,1337,1
52,quadbright,28.0,20,1,682.405948638916,682.4049949645996,910,1
53,quadbright,29.0,20,1,681.6108226776123,681.6098690032959,1339,1
54,quadbright,30.0,20,1,823.1778144836426,823.1706619262695,1013,1
55,quadbright,5.0,17,1,99.97200965881348,495.258092880249,1314,1
56,quadbright,6.0,17,1,197.61371612548828,582.4477672576904,1261,1
57,quadbright,7.0,17,1,94.92087364196777,581.5820693969727,1042,1
58,quadbright,8.0,17,1,98.86002540588379,790.6129360198975,852,1
59,quadbright,9.0,17,1,690.9952163696289,690.993070602417,1303,1
60,quadbright,10.0,17,1,99.14112091064453,492.779016494751,1175,1
61,quadbright,11.0,17,1,680.2470684051514,680.246114730835,892,1
62,quadbright,12.0,17,1,692.2848224639893,692.284107208252,1473,1
63,quadbright,13.0,17,1,691.5421485900879,691.5371417999268,1123,1
64,quadbright,14.0,17,1,691.8931007385254,691.8909549713135,1121,1
65,quadbright,15.0,17,1,591.5260314941406,591.5229320526123,1431,1
66,quadbright,16.0,17,1,901.6168117523193,901.608943939209,1464,1
67,quadbright,17.0,17,1,727.092981338501,727.0922660827637,938,1
68,quadbright,18.0,17,1,780.6620597839355,780.6611061096191,1210,1
69,quadbright,19.0,17,1,701.1568546295166,701.153039932251,1426,1
70,quadbright,20.0,17,1,679.9569129943848,679.9559593200684,973,1
71,quadbright,21.0,17,0,989.9399280548096,989.9327754974365,1381,1
72,quadbright,22.0,17,1,780.9152603149414,780.914306640625,993,1
73,quadbright,23.0,17,1,802.358865737915,802.3569583892822,938,1
74,quadbright,24.0,17,1,692.1389102935791,692.1348571777344,815,1
75,quadbright,25.0,17,1,727.3290157318115,727.327823638916,1152,1
76,quadbright,26.0,17,1,890.8488750457764,890.8481597900391,1115,1
77,quadbright,27.0,17,1,693.1331157684326,693.1319236755371,1396,1
78,quadbright,28.0,17,1,788.9022827148438,788.9010906219482,1181,1
79,quadbright,29.0,17,1,1208.737850189209,1208.7371349334717,896,1
80,quadbright,30.0,17,1,1218.973159790039,1218.9722061157227,840,1
81,quadbright,5.0,17,1,494.54808235168457,494.54307556152344,860,1
82,quadbright,6.0,17,1,725.6879806518555,725.6839275360107,1181,0
83,quadbright,6.0,17,1,724.9767780303955,724.9739170074463,1390,0
84,quadbright,6.0,17,1,198.1949806213379,604.2759418487549,1139,0
85,quadbright,6.0,17,1,297.20377922058105,686.8350505828857,1341,1
86,quadbright,7.0,17,1,494.7352409362793,494.7340488433838,1146,1
87,quadbright,8.0,17,1,97.80573844909668,879.9479007720947,1206,1
88,quadbright,9.0,17,1,98.57892990112305,592.6539897918701,1010,1
89,quadbright,10.0,17,1,681.7936897277832,681.7929744720459,1165,1
90,quadbright,11.0,17,1,604.2468547821045,604.2449474334717,1144,1
91,quadbright,12.0,17,1,131.35981559753418,714.3857479095459,1187,1
92,quadbright,13.0,17,1,190.38105010986328,585.7501029968262,1194,1
93,quadbright,14.0,17,1,989.5350933074951,989.5269870758057,1096,1
94,quadbright,15.0,17,1,691.0760402679443,691.0688877105713,1385,1
95,quadbright,16.0,17,1,694.011926651001,694.0102577209473,1212,1
96,quadbright,17.0,17,1,780.7521820068359,780.7509899139404,995,1
97,quadbright,18.0,17,1,702.2390365600586,702.2349834442139,867,0
98,quadbright,18.0,17,1,879.655122756958,879.6541690826416,1062,1
99,quadbright,19.0,17,1,695.0640678405762,695.0619220733643,1373,0
100,quadbright,19.0,17,1,600.0649929046631,600.0559329986572,1007,0
101,quadbright,19.0,17,1,636.3320350646973,636.3270282745361,997,0
102,quadbright,19.0,17,1,198.44913482666016,594.3553447723389,1426,1
103,quadbright,20.0,17,1,694.7603225708008,694.7591304779053,975,1
104,quadbright,21.0,20,1,591.3031101226807,591.3002490997314,1362,1
105,quadbright,22.0,17,1,691.9047832489014,691.9019222259521,877,1
106,quadbright,23.0,17,1,586.9641304016113,586.9629383087158,929,1
107,quadbright,24.0,17,1,713.3638858795166,713.3629322052002,1405,1
108,quadbright,25.0,17,1,1130.7649612426758,1130.7592391967773,990,1
109,quadbright,26.0,17,1,791.6932106018066,791.6882038116455,1363,1
110,quadbright,27.0,17,1,691.9169425964355,691.9128894805908,1080,1
111,quadbright,28.0,17,1,602.6768684387207,602.675199508667,1020,1
112,quadbright,29.0,17,1,690.6650066375732,690.6569004058838,1275,1
113,quadbright,30.0,17,1,533.0770015716553,533.074140548706,1312,1
114,quadbright,5.0,14,1,131.05511665344238,629.5590400695801,1425,1
115,quadbright,6.0,14,1,99.08294677734375,692.0602321624756,1269,1
116,quadbright,7.0,14,1,491.2080764770508,491.20497703552246,1470,1
117,quadbright,8.0,14,1,494.1558837890625,494.14777755737305,1254,0
118,quadbright,8.0,14,1,98.61993789672852,592.3829078674316,1006,1
119,quadbright,9.0,14,1,791.0771369934082,791.0730838775635,944,1
120,quadbright,10.0,14,1,603.0030250549316,602.9939651489258,952,1
121,quadbright,11.0,14,1,592.8492546081543,592.8483009338379,1428,1
122,quadbright,12.0,14,1,492.9699897766113,492.9661750793457,1091,1
123,quadbright,13.0,14,1,693.0720806121826,693.0651664733887,1323,1
124,quadbright,14.0,14,1,921.515941619873,921.4839935302734,880,1
125,quadbright,15.0,14,1,592.6499366760254,592.648983001709,956,1
126,quadbright,16.0,14,1,682.9428672790527,682.9409599304199,1065,1
127,quadbright,17.0,14,1,594.653844833374,594.6528911590576,1051,1
128,quadbright,18.0,14,1,591.728687286377,591.7208194732666,1447,1
129,quadbright,19.0,14,1,723.7248420715332,723.7229347229004,1273,1
130,quadbright,20.0,14,1,681.9748878479004,681.9729804992676,903,1
131,quadbright,21.0,20,1,1091.594934463501,1091.5930271148682,1284,1
132,quadbright,22.0,14,1,592.6971435546875,592.6940441131592,1448,1
133,quadbright,23.0,14,0,793.0760383605957,793.0710315704346,1426,1
134,quadbright,24.0,14,1,721.4150428771973,721.4140892028809,1286,1
135,quadbright,25.0,14,0,901.447057723999,901.4439582824707,1448,1
136,quadbright,26.0,14,1,793.4510707855225,793.449878692627,1235,1
137,quadbright,27.0,14,1,582.8649997711182,582.8638076782227,1182,1
138,quadbright,28.0,14,1,723.7610816955566,723.7570285797119,1477,1
139,quadbright,29.0,14,1,929.091215133667,929.0850162506104,1112,1
140,quadbright,30.0,14,1,1114.725112915039,1114.7241592407227,900,1
141,quadbright,5.0,14,1,98.82807731628418,494.14801597595215,1029,1
142,quadbright,6.0,14,1,100.0509262084961,595.7398414611816,818,1
143,quadbright,7.0,14,1,200.81377029418945,594.9456691741943,955,1
144,quadbright,8.0,14,1,100.91900825500488,485.5978488922119,1203,1
145,quadbright,9.0,14,1,590.4140472412109,590.4068946838379,1323,1
146,quadbright,10.0,14,1,104.02512550354004,402.65703201293945,1236,1
147,quadbright,11.0,14,1,492.3369884490967,492.33198165893555,870,1
148,quadbright,12.0,14,1,593.8370227813721,593.8301086425781,1139,1
149,quadbright,13.0,14,1,692.78883934021,692.7847862243652,880,1
150,quadbright,14.0,14,1,1297.9850769042969,1297.9800701141357,831,1
151,quadbright,15.0,14,1,592.0708179473877,592.066764831543,925,1
152,quadbright,16.0,14,1,890.0759220123291,890.0730609893799,1357,1
153,quadbright,17.0,14,1,996.8838691711426,996.8788623809814,934,1
154,quadbright,18.0,14,1,693.1788921356201,693.1750774383545,1020,1
155,quadbright,19.0,14,1,592.3259258270264,592.3237800598145,861,1
156,quadbright,20.0,14,1,591.5672779083252,591.5632247924805,1332,1
157,quadbright,21.0,18,1,604.8030853271484,604.7999858856201,1007,1
158,quadbright,22.0,14,1,888.9033794403076,888.8962268829346,1329,1
159,quadbright,23.0,17,1,693.469762802124,693.4666633605957,1111,1
160,quadbright,24.0,14,0,791.4366722106934,791.428804397583,1311,1
161,quadbright,25.0,17,1,725.7270812988281,725.7249355316162,1435,1
162,quadbright,26.0,14,1,395.82014083862305,395.8160877227783,1047,1
163,quadbright,27.0,14,0,724.9021530151367,724.8942852020264,1188,1
164,quadbright,28.0,14,1,723.0179309844971,723.0129241943359,990,1
165,quadbright,29.0,14,1,1078.1710147857666,1078.169822692871,1120,1
166,quadbright,30.0,14,1,1078.1519412994385,1078.150749206543,1074,1
167,quadbright,5.0,11,1,198.50993156433105,681.3719272613525,1223,1
168,quadbright,6.0,11,1,495.5430030822754,495.53894996643066,970,1
169,quadbright,7.0,11,1,99.18928146362305,602.100133895874,1416,1
170,quadbright,8.0,11,1,100.28696060180664,616.6501045227051,1253,1
171,quadbright,9.0,11,1,99.02524948120117,494.657039642334,1258,1
172,quadbright,10.0,11,1,595.4089164733887,595.3998565673828,902,1
173,quadbright,11.0,11,1,99.7457504272461,495.01490592956543,997,1
174,quadbright,12.0,11,1,396.29101753234863,624.9489784240723,884,1
175,quadbright,13.0,11,1,723.3672142028809,723.3641147613525,1073,1
176,quadbright,14.0,11,1,1021.3160514831543,1021.3098526000977,958,1
177,quadbright,15.0,11,1,724.5402336120605,724.5340347290039,974,1
178,quadbright,16.0,11,1,779.6270847320557,779.6261310577393,1056,1
179,quadbright,17.0,11,1,581.2311172485352,581.2301635742188,1104,1
180,quadbright,18.0,11,1,682.4500560760498,682.448148727417,939,1
181,quadbright,19.0,11,1,791.5830612182617,791.5713787078857,1291,1
182,quadbright,20.0,11,1,724.3478298187256,724.3447303771973,1181,1
183,quadbright,21.0,18,1,894.0672874450684,894.0620422363281,1409,1
184,quadbright,22.0,11,1,683.2907199859619,683.2900047302246,1487,1
185,quadbright,23.0,17,1,525.7699489593506,525.7658958435059,886,1
186,quadbright,24.0,17,1,593.3313369750977,593.3260917663574,1311,1
187,quadbright,25.0,17,1,691.2939548492432,691.2920475006104,1042,1
188,quadbright,26.0,11,1,889.1510963439941,889.1451358795166,906,1
189,quadbright,27.0,17,1,592.3731327056885,592.3621654510498,1432,1
190,quadbright,28.0,11,1,680.1729202270508,680.1717281341553,1108,1
191,quadbright,29.0,11,1,999.0298748016357,999.0241527557373,887,1
192,quadbright,30.0,11,0,1220.9861278533936,1220.9808826446533,948,1
193,quadbright,5.0,11,1,99.1830825805664,499.6910095214844,975,1
194,quadbright,6.0,11,1,197.42512702941895,592.2632217407227,1370,1
195,quadbright,7.0,11,1,582.5977325439453,582.5967788696289,1287,1
196,quadbright,8.0,11,1,293.17712783813477,691.6098594665527,1131,1
197,quadbright,9.0,11,1,694.4601535797119,694.4530010223389,967,1
198,quadbright,10.0,11,1,627.5677680969238,627.5639533996582,1077,1
199,quadbright,11.0,11,1,693.1521892547607,693.148136138916,855,1
200,quadbright,12.0,11,1,624.4831085205078,624.4790554046631,820,1
201,quadbright,13.0,11,1,99.49898719787598,637.321949005127,967,1
202,quadbright,14.0,11,1,493.32618713378906,493.3161735534668,1463,1
203,quadbright,15.0,11,1,194.37313079833984,679.9921989440918,1047,0
204,quadbright,15.0,11,1,527.3399353027344,527.3387432098389,1239,1
205,quadbright,16.0,11,1,99.4570255279541,1297.0812320709229,1155,1
206,quadbright,17.0,11,1,681.6480159759521,681.6470623016357,1337,1
207,quadbright,18.0,11,1,724.5161533355713,724.5121002197266,1004,1
208,quadbright,19.0,11,1,602.7951240539551,602.7898788452148,1349,1
209,quadbright,20.0,11,1,790.9092903137207,790.905237197876,1026,1
210,quadbright,21.0,17,1,503.6017894744873,503.59606742858887,937,1
211,quadbright,22.0,11,1,593.271017074585,593.2698249816895,1056,1
212,quadbright,23.0,15,1,594.1660404205322,594.1648483276367,974,1
213,quadbright,24.0,17,1,690.4890537261963,690.4850006103516,1237,1
214,quadbright,25.0,15,1,835.4701995849609,835.4659080505371,1269,1
215,quadbright,26.0,11,1,1176.2170791625977,1176.2161254882812,1491,1
216,quadbright,27.0,17,1,702.6152610778809,702.610969543457,876,1
217,quadbright,28.0,11,1,693.6020851135254,693.5980319976807,1079,1
218,quadbright,29.0,11,0,889.2760276794434,889.272928237915,821,1
219,quadbright,30.0,14,1,901.6330242156982,901.6258716583252,1454,1
220,quadbright,5.0,8,1,98.46091270446777,582.2689533233643,1361,1
221,quadbright,6.0,8,1,98.57702255249023,802.558183670044,825,1
222,quadbright,7.0,8,1,599.1952419281006,599.1911888122559,808,1
223,quadbright,8.0,8,1,695.1050758361816,695.1019763946533,1243,1
224,quadbright,9.0,8,1,593.1267738342285,593.1220054626465,980,1
225,quadbright,10.0,8,1,493.8690662384033,493.8631057739258,1132,1
226,quadbright,11.0,8,1,888.0927562713623,888.0870342254639,876,1
227,quadbright,12.0,8,1,692.6312446594238,692.626953125,1162,1
228,quadbright,13.0,8,1,614.2199039459229,614.21799659729,1063,1
229,quadbright,14.0,8,1,1010.6780529022217,1010.6770992279053,1211,1
230,quadbright,15.0,8,0,933.2191944122314,933.2122802734375,887,1
231,quadbright,16.0,8,0,890.5620574951172,890.5601501464844,1359,1
232,quadbright,17.0,8,1,681.2779903411865,681.2770366668701,944,1
233,quadbright,18.0,8,0,881.4148902893066,881.4127445220947,1185,1
234,quadbright,19.0,8,1,692.0039653778076,692.0008659362793,1268,1
235,quadbright,20.0,8,0,878.6628246307373,878.6618709564209,1124,1
236,quadbright,21.0,17,1,682.3809146881104,682.3797225952148,1015,1
237,quadbright,22.0,8,0,1021.8160152435303,1021.812915802002,906,1
238,quadbright,23.0,15,1,485.7468605041504,485.745906829834,1235,1
239,quadbright,24.0,15,1,582.2019577026367,582.2000503540039,955,1
240,quadbright,25.0,15,1,691.9710636138916,691.9658184051514,1185,1
241,quadbright,26.0,8,0,689.8257732391357,689.8219585418701,1087,1
242,quadbright,27.0,15,1,1120.2349662780762,1120.229959487915,1423,1
243,quadbright,28.0,8,1,1001.9619464874268,1001.957893371582,1067,0
244,quadbright,28.0,8,0,892.8420543670654,892.8329944610596,1345,1
245,quadbright,29.0,14,0,886.8250846862793,886.8229389190674,1138,1
246,quadbright,30.0,14,1,700.904369354248,700.8950710296631,1221,1
247,quadbright,5.0,8,1,99.73597526550293,694.1049098968506,950,1
248,quadbright,6.0,8,1,635.969877243042,635.9679698944092,1360,1
249,quadbright,7.0,8,1,99.05505180358887,604.8200130462646,1112,1
250,quadbright,8.0,8,1,97.77116775512695,592.9341316223145,1331,1
251,quadbright,9.0,8,1,492.73204803466797,492.72918701171875,1351,1
252,quadbright,10.0,8,1,527.7297496795654,527.7290344238281,1398,1
253,quadbright,11.0,8,1,625.4892349243164,625.4851818084717,966,1
254,quadbright,12.0,8,1,526.4530181884766,526.4492034912109,927,1
255,quadbright,13.0,8,1,691.8189525604248,691.8148994445801,1094,1
256,quadbright,14.0,8,1,691.3669109344482,691.3609504699707,1346,1
257,quadbright,15.0,11,1,582.930326461792,582.9291343688965,1258,1
258,quadbright,16.0,11,1,725.4691123962402,725.4650592803955,1446,1
259,quadbright,17.0,8,1,889.7147178649902,889.7128105163574,866,1
260,quadbright,18.0,11,1,582.9567909240723,582.956075668335,1190,1
261,quadbright,19.0,8,1,892.5530910491943,892.5478458404541,928,1
262,quadbright,20.0,11,0,890.812873840332,890.8090591430664,1470,1
263,quadbright,21.0,15,0,978.5230159759521,978.5218238830566,1020,0
264,quadbright,21.0,15,1,723.8881587982178,723.884105682373,1183,1
265,quadbright,22.0,11,0,1088.3221626281738,1088.3190631866455,944,1
266,quadbright,23.0,14,1,618.4678077697754,618.466854095459,1247,1
267,quadbright,24.0,15,1,99.28774833679199,890.9928798675537,871,1
268,quadbright,25.0,14,1,703.6869525909424,703.6819458007812,1141,1
269,quadbright,26.0,11,1,901.0541439056396,901.0512828826904,1249,1
270,quadbright,27.0,15,0,880.7849884033203,880.7837963104248,1193,1
271,quadbright,28.0,11,0,821.1603164672852,821.1572170257568,893,1
272,quadbright,29.0,17,1,902.2178649902344,902.2109508514404,1333,1
273,quadbright,30.0,12,1,694.3502426147461,694.3480968475342,1035,1
274,quadbright,5.0,5,1,99.21002388000488,593.7519073486328,890,1
275,quadbright,6.0,5,1,692.6710605621338,692.6689147949219,1092,1
276,quadbright,7.0,5,1,980.7722568511963,980.7701110839844,1016,1
277,quadbright,8.0,5,1,99.80201721191406,687.579870223999,1333,1
278,quadbright,9.0,5,0,789.7422313690186,789.729118347168,1234,1
279,quadbright,10.0,5,0,878.8890838623047,878.8878917694092,1093,1
280,quadbright,11.0,5,0,977.1521091461182,977.1511554718018,1495,1
281,quadbright,12.0,5,0,813.7509822845459,813.7497901916504,1343,1
282,quadbright,13.0,5,1,821.6888904571533,821.688175201416,1244,1
283,quadbright,14.0,5,1,130.5990219116211,921.799898147583,1078,1
284,quadbright,15.0,11,1,626.8112659454346,626.8100738525391,1373,1
285,quadbright,16.0,11,1,592.918872833252,592.9090976715088,1244,1
286,quadbright,17.0,5,0,815.3061866760254,815.3049945831299,996,1
287,quadbright,18.0,11,1,887.1779441833496,887.1757984161377,826,1
288,quadbright,19.0,5,0,691.0829544067383,691.0769939422607,1489,1
289,quadbright,20.0,14,1,593.3630466461182,593.3620929718018,1107,1
