trial,condition,eccentricity,magnitude,correct,srt_ms,keyboard_rt_ms,pre_change_ms,valid
1,control,5.0,20,1,2705.4741382598877,2705.4672241210938,1365,1
2,control,6.0,20,1,198.1041431427002,592.3702716827393,922,1
3,control,7.0,20,1,98.82903099060059,398.32496643066406,1028,1
4,control,8.0,20,1,98.85907173156738,692.7390098571777,1474,1
5,control,9.0,20,1,197.16620445251465,592.3981666564941,835,1
6,control,10.0,20,1,483.40702056884766,483.40487480163574,1020,1
7,control,11.0,20,1,97.76091575622559,493.9849376678467,872,1
8,control,12.0,20,1,535.9339714050293,535.930871963501,1292,1
9,control,13.0,20,1,100.08502006530762,494.95887756347656,1430,1
10,control,14.0,20,1,198.3952522277832,592.8440093994141,1198,1
11,control,15.0,20,1,494.69900131225586,494.6870803833008,1135,1
12,control,16.0,20,1,98.73104095458984,986.9539737701416,1332,1
13,control,17.0,20,1,505.95617294311523,505.9540271759033,1071,1
14,control,18.0,20,1,494.204044342041,494.2009449005127,1111,0
15,control,18.0,20,1,494.84896659851074,494.84801292419434,943,1
16,control,19.0,20,1,979.5560836791992,979.5529842376709,1047,1
17,control,20.0,20,1,493.5939311981201,493.5879707336426,938,1
18,control,21.0,20,1,493.8018321990967,493.79992485046387,1374,1
19,control,22.0,20,1,594.1388607025146,594.1381454467773,913,1
20,control,23.0,20,1,403.19371223449707,403.19061279296875,1224,1
21,control,24.0,20,1,593.9288139343262,593.9269065856934,1150,1
22,control,25.0,20,1,427.4158477783203,427.4141788482666,1451,1
23,control,26.0,20,1,591.5122032165527,591.5071964263916,953,1
24,control,27.0,20,1,592.6468372344971,592.6368236541748,1276,1
25,control,28.0,20,1,593.5909748077393,593.5721397399902,1491,1
26,control,29.0,20,1,593.8379764556885,593.8370227813721,1317,1
27,control,30.0,20,1,693.3870315551758,693.3820247650146,1417,1
28,control,5.0,20,1,426.9256591796875,426.9230365753174,1476,1
29,control,6.0,20,1,106.45914077758789,401.7939567565918,1413,1
30,control,7.0,20,1,198.08292388916016,582.7631950378418,1190,1
31,control,8.0,20,1,493.62897872924805,493.62683296203613,1266,1
32,control,9.0,20,1,526.864767074585,526.8609523773193,1214,1
33,control,10.0,20,1,198.69589805603027,494.9018955230713,911,1
34,control,11.0,20,1,524.2071151733398,524.2021083831787,1183,1
35,control,12.0,20,1,635.0188255310059,635.0109577178955,841,1
36,control,13.0,20,1,725.1040935516357,725.1019477844238,1156,0
37,control,13.0,20,1,495.1949119567871,495.1918125152588,805,1
38,control,14.0,20,1,493.9870834350586,493.98207664489746,1331,1
39,control,15.0,20,1,494.67992782592773,494.6789741516113,1093,1
40,control,16.0,20,1,891.045093536377,891.0398483276367,945,1
41,control,17.0,20,1,493.73722076416016,493.73412132263184,889,1
42,control,18.0,20,1,494.74215507507324,494.74120140075684,1300,1
43,control,19.0,20,1,723.8528728485107,723.8509654998779,1112,1
44,control,20.0,20,1,625.3418922424316,625.3321170806885,1279,1
45,control,21.0,20,1,636.1260414123535,636.1231803894043,820,1
46,control,22.0,20,1,1120.9080219268799,1120.9049224853516,946,1
47,control,23.0,20,1,492.39325523376465,492.382287979126,859,1
48,control,24.0,20,1,582.3390483856201,582.3380947113037,1339,1
49,control,25.0,20,1,494.168758392334,494.16613578796387,971,1
50,control,26.0,20,1,583.1680297851562,583.1661224365234,1167,1
51,control,27.0,20,1,491.5730953216553,491.56832695007324,851,1
52,control,28.0,20,1,493.47877502441406,493.47496032714844,1223,1
53,control,29.0,20,1,493.527889251709,493.52192878723145,1394,1
54,control,30.0,20,1,725.3060340881348,725.3000736236572,1485,1
55,control,5.0,17,1,198.64821434020996,526.1690616607666,924,1
56,control,6.0,17,1,482.8650951385498,482.8641414642334,967,1
57,control,7.0,17,1,100.43787956237793,398.55480194091797,1468,1
58,control,8.0,17,1,595.2839851379395,595.2813625335693,1160,1
59,control,9.0,17,1,593.9619541168213,593.9610004425049,1046,1
60,control,10.0,17,1,590.6219482421875,590.6131267547607,1119,1
61,control,11.0,17,1,594.5010185241699,594.498872756958,1078,1
62,control,12.0,17,1,594.1309928894043,594.120979309082,919,1
63,control,13.0,17,1,597.4326133728027,597.4287986755371,1439,1
64,control,14.0,17,1,494.9321746826172,494.9312210083008,976,1
65,control,15.0,17,1,592.3788547515869,592.3731327056885,1323,1
66,control,16.0,17,1,494.86279487609863,494.8587417602539,1398,1
67,control,17.0,17,1,505.634069442749,505.6309700012207,1259,1
68,control,18.0,17,1,504.3177604675293,504.31275367736816,1026,1
69,control,19.0,17,1,604.0358543395996,604.032039642334,1123,1
70,control,20.0,17,1,482.76615142822266,482.76519775390625,808,1
71,control,21.0,17,1,483.0930233001709,483.0923080444336,819,1
72,control,22.0,17,1,494.4329261779785,494.4298267364502,1119,1
73,control,23.0,17,1,988.584041595459,988.5802268981934,1412,1
74,control,24.0,17,1,627.2010803222656,627.197265625,1031,1
75,control,25.0,17,1,491.44983291625977,491.44983291625977,1265,1
76,control,26.0,17,1,494.8880672454834,494.88115310668945,1344,1
77,control,27.0,17,1,593.3279991149902,593.3229923248291,1214,1
78,control,28.0,17,1,594.027042388916,594.027042388916,1165,1
79,control,29.0,17,1,492.2349452972412,492.2308921813965,1215,1
80,control,30.0,17,1,528.7070274353027,528.6991596221924,1336,1
81,control,5.0,17,1,526.4191627502441,526.4129638671875,962,1
82,control,6.0,17,0,198.4419822692871,1615.2641773223877,1094,1
83,control,7.0,17,1,404.54697608947754,404.5400619506836,826,1
84,control,8.0,17,1,195.66988945007324,593.8310623168945,1429,1
85,control,9.0,17,1,498.28195571899414,498.2771873474121,1488,1
86,control,10.0,17,1,98.77324104309082,494.59028244018555,826,1
87,control,11.0,17,1,98.65021705627441,396.4390754699707,1393,1
88,control,12.0,17,1,493.8521385192871,493.8509464263916,1072,1
89,control,13.0,17,1,493.7272071838379,493.72220039367676,915,1
90,control,14.0,17,1,493.8938617706299,493.88599395751953,1360,1
91,control,15.0,17,0,891.7138576507568,891.7131423950195,961,1
92,control,16.0,17,1,494.4498538970947,494.4489002227783,1104,1
93,control,17.0,17,0,628.6780834197998,628.6759376525879,1247,1
94,control,18.0,17,1,527.7070999145508,527.7042388916016,992,1
95,control,19.0,17,1,496.74081802368164,496.73986434936523,1040,1
96,control,20.0,17,1,494.3208694458008,494.31681632995605,1046,1
97,control,21.0,17,1,494.46797370910645,494.4651126861572,1155,1
98,control,22.0,17,1,599.8859405517578,599.884033203125,1160,1
99,control,23.0,17,1,593.3578014373779,593.3568477630615,1119,1
100,control,24.0,17,1,537.2810363769531,537.2731685638428,826,1
101,control,25.0,17,1,494.157075881958,494.1549301147461,966,1
102,control,26.0,17,1,493.5870170593262,493.58415603637695,950,1
103,control,27.0,17,1,483.2930564880371,483.2921028137207,1019,1
104,control,28.0,17,1,627.0248889923096,627.0160675048828,1074,1
105,control,29.0,17,1,592.1268463134766,592.1220779418945,1162,1
106,control,30.0,17,1,626.1081695556641,626.1060237884521,1161,1
107,control,5.0,14,1,99.36904907226562,890.0539875030518,1440,1
108,control,6.0,20,1,98.48308563232422,1010.4789733886719,1356,1
109,control,7.0,14,1,197.97301292419434,493.3788776397705,849,1
110,control,8.0,14,1,202.24595069885254,396.46220207214355,1196,1
111,control,9.0,14,1,493.3767318725586,493.3738708496094,1326,1
112,control,10.0,14,1,393.9390182495117,393.934965133667,1035,1
113,control,11.0,14,1,203.55892181396484,603.8501262664795,1254,1
114,control,12.0,14,1,625.0348091125488,625.0276565551758,889,1
115,control,13.0,14,1,593.3609008789062,593.358039855957,1117,1
116,control,14.0,14,1,99.66111183166504,494.3091869354248,934,1
117,control,15.0,20,1,494.63701248168945,494.6317672729492,1131,1
118,control,16.0,14,1,525.914192199707,525.9110927581787,1080,1
119,control,17.0,20,1,398.144006729126,398.13780784606934,806,1
120,control,18.0,14,1,604.6199798583984,604.6168804168701,970,1
121,control,19.0,14,1,493.7121868133545,493.70288848876953,1317,1
122,control,20.0,14,1,495.4519271850586,495.4512119293213,1008,1
123,control,21.0,14,1,383.92019271850586,383.91900062561035,1255,1
124,control,22.0,14,1,492.5811290740967,492.57588386535645,1314,1
125,control,23.0,14,1,395.7328796386719,395.73192596435547,1286,1
126,control,24.0,14,1,593.2271480560303,593.2190418243408,1010,1
127,control,25.0,14,1,497.53618240356445,497.53499031066895,1276,1
128,control,26.0,14,1,494.9491024017334,494.948148727417,1322,1
129,control,27.0,14,1,393.7571048736572,393.74303817749023,1413,1
130,control,28.0,14,1,489.9330139160156,489.9289608001709,1263,1
131,control,29.0,14,1,792.3173904418945,792.3152446746826,1325,1
132,control,30.0,14,1,595.999002456665,595.9980487823486,1026,1
133,control,5.0,14,1,96.99106216430664,490.4439449310303,1392,1
134,control,6.0,20,1,493.29304695129395,493.2889938354492,1477,1
135,control,7.0,14,1,296.92602157592773,793.705940246582,1404,1
136,control,8.0,14,1,594.7070121765137,594.7060585021973,1338,1
137,control,9.0,14,1,589.3919467926025,589.3900394439697,873,1
138,control,10.0,14,1,485.3229522705078,485.3229522705078,1308,1
139,control,11.0,14,1,398.38528633117676,398.3800411224365,1023,1
140,control,12.0,14,1,482.87320137023926,482.87224769592285,1030,1
141,control,13.0,14,1,395.3359127044678,395.33495903015137,1173,1
142,control,14.0,14,1,878.9498805999756,878.9486885070801,1494,1
143,control,15.0,20,1,502.4840831756592,502.48003005981445,1117,1
144,control,16.0,14,1,499.3147850036621,499.3116855621338,1417,1
145,control,17.0,20,1,595.452070236206,595.4458713531494,807,1
146,control,18.0,14,1,593.3802127838135,593.3792591094971,1173,1
147,control,19.0,14,1,526.0999202728271,526.0968208312988,903,1
148,control,20.0,14,1,493.8371181488037,493.83020401000977,1350,1
149,control,21.0,14,1,933.8541030883789,933.8459968566895,924,1
150,control,22.0,14,1,624.0160465240479,624.0079402923584,1151,1
151,control,23.0,14,1,615.9408092498779,615.9396171569824,1141,1
152,control,24.0,14,1,495.25904655456543,495.2571392059326,821,1
153,control,25.0,14,1,590.9466743469238,590.9450054168701,1198,1
154,control,26.0,14,1,604.1018962860107,604.0971279144287,1027,1
155,control,27.0,14,1,493.6378002166748,493.63088607788086,1359,1
156,control,28.0,14,1,593.7550067901611,593.7542915344238,1122,1
157,control,29.0,14,1,890.9451961517334,890.9361362457275,1438,1
158,control,30.0,14,0,604.8262119293213,604.823112487793,1330,1
159,control,5.0,11,1,99.07793998718262,992.9201602935791,1370,1
160,control,6.0,18,1,98.9830493927002,505.69796562194824,835,1
161,control,7.0,11,1,98.58989715576172,495.0530529022217,807,1
162,control,8.0,11,1,204.79488372802734,603.388786315918,1281,1
163,control,9.0,11,1,583.6131572723389,583.611249923706,858,1
164,control,10.0,11,1,494.7512149810791,494.7500228881836,1131,1
165,control,11.0,11,1,494.25601959228516,494.25292015075684,1138,1
166,control,12.0,11,1,484.51805114746094,484.51709747314453,1039,1
167,control,13.0,11,1,586.56907081604,586.5681171417236,1456,1
168,control,14.0,11,1,494.6737289428711,494.6706295013428,1056,1
169,control,15.0,18,1,401.6902446746826,401.6892910003662,1022,1
170,control,16.0,11,1,495.04995346069336,495.0399398803711,1468,1
171,control,17.0,18,1,486.61088943481445,486.60993576049805,1002,1
172,control,18.0,11,1,486.0677719116211,486.0668182373047,952,1
173,control,19.0,11,1,495.4221248626709,495.41592597961426,1245,1
174,control,20.0,11,1,594.8190689086914,594.8178768157959,1014,1
175,control,21.0,11,1,526.4718532562256,526.4678001403809,865,1
176,control,22.0,11,1,595.0429439544678,595.0419902801514,1293,1
177,control,23.0,11,1,504.4260025024414,504.4217109680176,1322,1
178,control,24.0,11,1,626.2130737304688,626.209020614624,809,1
179,control,25.0,11,1,617.5360679626465,617.5351142883301,1370,1
180,control,26.0,11,1,427.0200729370117,427.0141124725342,813,1
181,control,27.0,11,1,724.2691516876221,724.2679595947266,1113,1
182,control,28.0,11,1,498.4400272369385,498.43788146972656,851,1
183,control,29.0,11,1,694.6918964385986,694.6902275085449,1173,1
184,control,30.0,17,1,681.4000606536865,681.3991069793701,1066,1
185,control,5.0,11,1,209.43593978881836,604.1228771209717,1088,1
186,control,6.0,18,1,99.81894493103027,493.85595321655273,1479,1
187,control,7.0,11,1,527.0249843597412,527.0240306854248,1379,0
188,control,7.0,11,1,99.11298751831055,394.8378562927246,847,1
189,control,8.0,11,1,201.08604431152344,595.5910682678223,1107,1
190,control,9.0,11,1,493.8702583312988,493.8671588897705,1038,1
191,control,10.0,11,1,230.06701469421387,525.853157043457,854,1
192,control,11.0,11,1,693.0510997772217,693.0491924285889,1484,1
193,control,12.0,11,1,891.6308879852295,891.625165939331,1007,1
194,control,13.0,11,1,405.4419994354248,405.4391384124756,944,1
195,control,14.0,11,1,493.27898025512695,493.2727813720703,1470,1
196,control,15.0,18,1,581.5470218658447,581.5448760986328,1083,1
197,control,16.0,11,1,911.0462665557861,911.0450744628906,962,1
198,control,17.0,18,0,395.82276344299316,395.81990242004395,1453,1
199,control,18.0,11,1,604.4409275054932,604.438066482544,1099,1
200,control,19.0,11,1,498.49700927734375,498.49390983581543,1214,1
201,control,20.0,11,1,526.2219905853271,526.2200832366943,1294,1
202,control,21.0,11,1,335.2057933807373,335.2038860321045,1153,1
203,control,22.0,11,1,824.7659206390381,824.7649669647217,1071,1
204,control,23.0,11,1,492.9978847503662,492.9921627044678,1009,1
205,control,24.0,11,1,594.2180156707764,594.2168235778809,1062,1
206,control,25.0,11,1,494.8770999908447,494.8761463165283,1221,1
207,control,26.0,11,1,607.5530052185059,607.5520515441895,914,1
208,control,27.0,11,1,692.6829814910889,692.6751136779785,1448,1
209,control,28.0,11,1,596.254825592041,596.2510108947754,1499,1
210,control,29.0,11,1,492.80476570129395,492.8009510040283,1473,1
211,control,30.0,17,1,692.620038986206,692.6169395446777,1357,1
212,control,5.0,8,1,197.92628288269043,499.44615364074707,870,1
213,control,6.0,17,1,189.86082077026367,981.7097187042236,1248,1
214,control,7.0,8,1,724.5440483093262,724.5378494262695,1118,0
215,control,7.0,8,1,98.51503372192383,525.9490013122559,1396,1
216,control,8.0,8,1,132.0037841796875,627.5100708007812,1237,1
217,control,9.0,8,1,495.50890922546387,495.50795555114746,1164,1
218,control,10.0,8,1,494.1260814666748,494.124174118042,929,1
219,control,11.0,8,1,396.0247039794922,396.0247039794922,1295,1
220,control,12.0,8,1,527.5359153747559,527.5330543518066,821,1
221,control,13.0,8,1,516.7028903961182,516.7019367218018,1300,1
222,control,14.0,8,1,526.2131690979004,526.2100696563721,1294,1
223,control,15.0,17,1,538.2342338562012,538.2251739501953,1300,1
224,control,16.0,8,1,99.37310218811035,393.10479164123535,1074,0
225,control,16.0,8,1,593.5449600219727,593.5370922088623,1092,1
226,control,17.0,20,1,499.2408752441406,499.2399215698242,959,1
227,control,18.0,8,1,592.818021774292,592.8149223327637,933,1
228,control,19.0,8,1,494.78697776794434,494.78602409362793,1231,1
229,control,20.0,8,1,484.23194885253906,484.23099517822266,1353,1
230,control,21.0,8,1,587.6801013946533,587.6791477203369,1435,1
231,control,22.0,8,1,592.9880142211914,592.9839611053467,1364,1
232,control,23.0,8,1,593.9619541168213,593.958854675293,1136,1
233,control,24.0,8,1,484.18569564819336,484.18474197387695,1209,1
234,control,25.0,8,1,626.54709815979,626.5411376953125,856,1
235,control,26.0,8,1,701.7951011657715,701.7889022827148,1199,0
236,control,26.0,8,1,508.54992866516113,508.5470676422119,849,1
237,control,27.0,8,0,680.3278923034668,680.3269386291504,865,1
238,control,28.0,8,1,695.7521438598633,695.7480907440186,1144,0
239,control,28.0,8,1,398.32496643066406,398.32186698913574,1226,1
240,control,29.0,8,0,588.8280868530273,588.8199806213379,969,1
241,control,30.0,15,1,494.71092224121094,494.70973014831543,1344,1
242,control,5.0,8,1,97.67699241638184,492.6729202270508,860,1
243,control,6.0,17,1,208.8329792022705,604.619026184082,1441,1
244,control,7.0,8,1,99.24721717834473,495.39828300476074,840,1
245,control,8.0,8,1,99.2741584777832,494.6470260620117,1410,1
246,control,9.0,8,0,198.29583168029785,397.0928192138672,1053,1
247,control,10.0,8,1,598.3011722564697,598.2980728149414,875,1
248,control,11.0,8,1,1025.528907775879,1025.5258083343506,1405,1
249,control,12.0,8,1,615.0031089782715,615.0009632110596,1268,1
250,control,13.0,8,1,528.6979675292969,528.6960601806641,1249,1
251,control,14.0,8,1,515.7911777496338,515.789270401001,868,1
252,control,15.0,17,1,937.748908996582,937.7448558807373,943,1
253,control,16.0,8,1,594.3779945373535,594.3748950958252,1115,1
254,control,17.0,20,1,892.2030925750732,892.1999931335449,1400,1
255,control,18.0,8,1,395.13111114501953,395.1301574707031,856,1
256,control,19.0,8,1,485.57090759277344,485.56995391845703,1168,1
257,control,20.0,8,1,493.0381774902344,493.03293228149414,1300,1
258,control,21.0,8,0,893.7270641326904,893.7242031097412,1067,1
259,control,22.0,8,1,403.4271240234375,403.4249782562256,1379,1
260,control,23.0,8,1,695.6207752227783,695.620059967041,881,1
261,control,24.0,8,1,492.5713539123535,492.5661087036133,906,1
262,control,25.0,8,0,725.5222797393799,725.5144119262695,1411,1
263,control,26.0,8,1,728.1279563903809,728.1250953674316,843,1
264,control,27.0,11,0,626.1141300201416,626.1141300201416,1175,1
265,control,28.0,8,0,618.5941696166992,618.5932159423828,982,1
266,control,29.0,11,1,533.0312252044678,533.0302715301514,915,1
267,control,30.0,15,1,524.4319438934326,524.4269371032715,1434,1
268,control,5.0,5,1,197.83616065979004,526.8809795379639,1467,1
269,control,6.0,15,1,197.79467582702637,594.458818435669,1060,1
270,control,7.0,5,1,98.33288192749023,497.16711044311523,931,1
271,control,8.0,5,1,99.03407096862793,493.0531978607178,1064,1
272,control,9.0,11,0,596.1079597473145,596.107006072998,919,1
273,control,10.0,5,1,599.4729995727539,599.4701385498047,1358,1
274,control,11.0,5,1,581.6657543182373,581.6650390625,1222,1
275,control,12.0,5,0,923.48313331604,923.4800338745117,1486,1
276,control,13.0,5,1,526.4570713043213,526.4530181884766,1188,1
277,control,14.0,5,1,591.867208480835,591.8641090393066,815,1
278,control,15.0,15,1,404.4930934906006,404.49023246765137,822,1
279,control,16.0,5,1,594.836950302124,594.8359966278076,1499,1
280,control,17.0,19,1,494.8298931121826,494.8289394378662,1187,1
281,control,18.0,5,1,897.8040218353271,897.8018760681152,894,1
282,control,19.0,5,0,594.5489406585693,594.5479869842529,1468,1
283,control,20.0,5,1,794.8000431060791,794.7981357574463,1362,1
284,control,21.0,11,1,493.73698234558105,493.73483657836914,1147,1
285,control,22.0,5,1,396.29507064819336,396.29411697387695,1361,1
286,control,23.0,5,1,497.96223640441895,497.9591369628906,933,1
287,control,24.0,5,0,593.6460494995117,593.6410427093506,1134,1
288,control,25.0,11,0,496.8609809875488,496.8600273132324,1012,1
289,control,26.0,5,1,595.6473350524902,595.6442356109619,1487,1
290,control,27.0,14,1,295.4559326171875,295.4530715942383,1290,1
291,control,28.0,11,1,494.6939945220947,494.68994140625,1425,1
292,control,29.0,11,0,395.57909965515137,395.57719230651855,842,1
293,control,30.0,14,1,683.312177658081,683.3102703094482,1196,1
294,control,5.0,5,1,104.87771034240723,690.882682800293,1003,1
295,control,6.0,15,1,197.94893264770508,697.6919174194336,811,1
296,control,7.0,5,1,95.45397758483887,524.2550373077393,802,1
297,control,8.0,5,1,416.16106033325195,416.16010665893555,1283,1
298,control,9.0,14,1,527.9579162597656,527.9579162597656,1071,1
299,control,10.0,5,1,396.3139057159424,396.312952041626,1105,1
300,control,11.0,5,1,594.141960144043,594.1379070281982,1138,1
301,control,12.0,8,1,779.799222946167,779.799222946167,988,1
302,control,13.0,5,1,635.6680393218994,635.6649398803711,882,1
303,control,14.0,5,1,627.2456645965576,627.2318363189697,1271,1
304,control,15.0,15,1,495.1050281524658,495.1040744781494,1198,1
305,control,16.0,5,1,591.9580459594727,591.9501781463623,958,1
306,control,17.0,19,1,621.4220523834229,621.4210987091064,1029,1
307,control,18.0,5,1,723.4659194946289,723.4599590301514,885,1
308,control,19.0,8,1,527.2219181060791,527.2209644317627,1385,1
309,control,20.0,5,1,624.4349479675293,624.424934387207,1424,1
310,control,21.0,11,1,425.5378246307373,425.53091049194336,1153,1
311,control,22.0,5,1,625.7617473602295,625.7610321044922,1206,1
312,control,23.0,5,1,889.4052505493164,889.4000053405762,1460,1
313,control,24.0,8,1,505.1310062408447,505.1248073577881,1082,1
314,control,25.0,14,1,495.18513679504395,495.1791763305664,1396,1
315,control,26.0,5,0,495.150089263916,495.1450824737549,841,1
316,control,27.0,14,1,494.90904808044434,494.8999881744385,928,1
317,control,28.0,11,1,493.3450222015381,493.33715438842773,1068,1
318,control,29.0,12,1,592.2198295593262,592.2129154205322,1372,1
319,control,30.0,14,1,494.86494064331055,494.86374855041504,1066,1
320,control,5.0,2,0,98.35100173950195,922.6670265197754,881,1
321,control,6.0,14,1,99.02405738830566,593.4610366821289,1167,1
322,control,7.0,2,1,99.3490219116211,495.20397186279297,1197,1
323,control,8.0,2,0,97.11098670959473,1976.0968685150146,1481,1
324,control,9.0,14,1,690.4768943786621,690.4721260070801,982,1
325,control,10.0,2,0,692.6741600036621,692.6732063293457,866,1
326,control,11.0,2,1,692.7056312561035,692.7008628845215,972,1
327,control,12.0,8,1,526.4749526977539,526.4708995819092,973,1
328,control,13.0,2,0,791.6560173034668,791.6538715362549,946,1
329,control,14.0,2,1,491.64819717407227,491.64390563964844,1042,1
330,control,15.0,14,1,490.1559352874756,490.1549816131592,1017,1
331,control,16.0,2,0,900.2537727355957,900.2509117126465,1497,1
332,control,17.0,18,1,691.2739276885986,691.270112991333,966,1
333,control,18.0,2,0,890.7260894775391,890.7239437103271,881,1
334,control,19.0,8,1,593.9702987670898,593.9562320709229,871,1
335,control,20.0,2,0,879.4188499450684,879.417896270752,889,1
336,control,21.0,9,1,487.0169162750244,487.0150089263916,1487,1
337,control,22.0,2,1,703.1149864196777,703.1087875366211,908,1
338,control,23.0,2,1,790.5478477478027,790.5421257019043,801,1
339,control,24.0,8,1,495.2728748321533,495.2709674835205,1338,1
340,control,25.0,14,1,483.0141067504883,483.0131530761719,1025,1
341,control,26.0,8,1,494.1060543060303,494.10223960876465,1393,1
342,control,27.0,12,1,592.3709869384766,592.3652648925781,1113,1
343,control,28.0,9,1,428.1349182128906,428.1337261199951,1225,1
344,control,29.0,12,1,525.1429080963135,525.1390933990479,1019,1
345,control,30.0,12,1,627.593994140625,627.5932788848877,1193,1
346,control,5.0,5,1,98.01602363586426,483.4930896759033,1208,1
347,control,6.0,14,1,100.21519660949707,504.741907119751,1063,1
348,control,7.0,2,0,98.3579158782959,722.6648330688477,1499,1
349,control,8.0,5,1,494.246244430542,494.246244430542,1188,1
350,control,9.0,12,1,395.45273780822754,395.4501152038574,1381,1
351,control,10.0,5,1,494.1098690032959,494.10510063171387,1337,1
352,control,11.0,2,0,782.0448875427246,782.0441722869873,942,1
353,control,12.0,6,1,989.4170761108398,989.4082546234131,1067,1
354,control,13.0,5,1,494.91310119628906,494.91190910339355,1067,1
355,control,14.0,2,0,691.5409564971924,691.5318965911865,1329,1
356,control,15.0,14,1,585.134744644165,585.134744644165,1214,1
357,control,16.0,5,0,681.9839477539062,681.9820404052734,1147,1
358,control,17.0,18,1,723.9627838134766,723.9508628845215,1416,1
359,control,18.0,5,0,436.0640048980713,436.06090545654297,1036,1
360,control,19.0,6,1,625.3540515899658,625.3480911254883,1285,1
361,control,20.0,5,0,788.8607978820801,788.8576984405518,959,1
362,control,21.0,9,1,495.14007568359375,495.13792991638184,1281,1
363,control,22.0,2,1,494.6150779724121,494.6098327636719,999,1
364,control,23.0,2,0,790.5809879302979,790.5771732330322,1189,1
365,control,24.0,6,1,595.8538055419922,595.8437919616699,1190,1
366,control,25.0,12,1,505.0849914550781,505.0790309906006,1050,1
367,control,26.0,8,1,592.8888320922852,592.8857326507568,950,1
368,control,27.0,12,1,592.9131507873535,592.9090976715088,1028,1
369,control,28.0,9,0,692.9488182067871,692.9478645324707,1468,1
370,control,29.0,11,1,623.5051155090332,623.4960556030273,948,1
371,control,30.0,12,1,724.3599891662598,724.3530750274658,1362,1
372,control,5.0,5,1,98.6940860748291,627.4979114532471,1016,1
373,control,6.0,12,1,95.31283378601074,493.8828945159912,978,1
374,control,7.0,5,1,97.88107872009277,493.72124671936035,835,1
375,control,8.0,5,1,901.1199474334717,901.1139869689941,1293,1
376,control,9.0,12,1,692.5199031829834,692.5148963928223,838,1
377,control,10.0,5,0,483.5631847381592,483.5619926452637,1324,1
378,control,11.0,5,0,791.485071182251,791.4810180664062,1489,1
379,control,12.0,6,1,627.6121139526367,627.6109218597412,886,1
380,control,13.0,5,1,592.0491218566895,592.041015625,828,1
381,control,14.0,5,1,492.3880100250244,492.382287979126,1101,1
382,control,15.0,12,0,692.7249431610107,692.7168369293213,959,1
383,control,16.0,8,1,493.41487884521484,493.4096336364746,959,1
384,control,17.0,17,1,592.8380489349365,592.8349494934082,1378,1
385,control,18.0,8,1,484.19904708862305,484.19809341430664,880,1
386,control,19.0,6,1,723.5760688781738,723.5739231109619,978,1
387,control,20.0,8,0,636.27028465271,636.2650394439697,1434,1
388,control,21.0,8,1,822.0400810241699,822.0360279083252,978,1
389,control,22.0,1,0,593.358039855957,593.358039855957,979,1
390,control,23.0,5,0,925.346851348877,925.3439903259277,1193,1
391,control,24.0,6,0,626.2848377227783,626.284122467041,1139,1
392,control,25.0,12,1,731.7080497741699,731.7020893096924,1409,1
393,control,26.0,6,1,728.0848026275635,728.0838489532471,1446,1
394,control,27.0,11,1,604.341983795166,604.3398380279541,1471,1
395,control,28.0,11,1,593.757152557373,593.7561988830566,1038,1
396,control,29.0,11,0,623.201847076416,623.1989860534668,1079,1
397,control,30.0,11,1,514.7659778594971,514.7650241851807,1082,1
1,quadbright,5.0,20,1,198.68803024291992,494.2498207092285,1169,1
2,quadbright,6.0,20,1,198.22406768798828,604.8381328582764,1218,1
3,quadbright,7.0,20,1,494.8711395263672,494.8701858520508,1320,1
4,quadbright,8.0,20,1,98.54602813720703,525.9709358215332,984,1
5,quadbright,9.0,20,1,99.04980659484863,604.3391227722168,1388,1
6,quadbright,10.0,20,1,99.7161865234375,494.02403831481934,853,1
7,quadbright,11.0,20,1,493.19982528686523,493.1929111480713,863,1
8,quadbright,12.0,20,1,897.4871635437012,897.4850177764893,1137,1
9,quadbright,13.0,20,1,207.71503448486328,602.3867130279541,957,1
10,quadbright,14.0,20,1,593.3411121368408,593.3370590209961,1108,1
11,quadbright,15.0,20,1,505.82289695739746,505.82098960876465,1258,1
12,quadbright,16.0,20,1,494.9362277984619,494.9302673339844,1140,1
13,quadbright,17.0,20,1,594.6090221405029,594.6028232574463,895,1
14,quadbright,18.0,20,1,483.7031364440918,483.7021827697754,1454,1
15,quadbright,19.0,20,1,594.9628353118896,594.9499607086182,1221,1
16,quadbright,20.0,20,1,493.13902854919434,493.1378364562988,1074,1
17,quadbright,21.0,20,1,490.0968074798584,490.0939464569092,1340,1
18,quadbright,22.0,20,1,495.145320892334,495.14317512512207,1411,1
19,quadbright,23.0,20,1,491.7328357696533,491.7278289794922,808,1
20,quadbright,24.0,20,1,494.373083114624,494.3709373474121,925,1
21,quadbright,25.0,20,1,583.0659866333008,583.064079284668,1137,1
22,quadbright,26.0,20,1,592.5126075744629,592.5118923187256,947,1
23,quadbright,27.0,20,1,491.4717674255371,491.4669990539551,1030,1
24,quadbright,28.0,20,1,605.6578159332275,605.6487560272217,1409,1
25,quadbright,29.0,20,1,495.1300621032715,495.12505531311035,1251,1
26,quadbright,30.0,20,1,495.3610897064209,495.358943939209,821,1
27,quadbright,5.0,20,1,229.46906089782715,526.3798236846924,1041,1
28,quadbright,6.0,20,1,494.8840141296387,494.88115310668945,863,1
29,quadbright,7.0,20,1,99.19190406799316,527.2290706634521,1185,1
30,quadbright,8.0,20,1,131.5910816192627,515.5072212219238,1342,1
31,quadbright,9.0,20,1,525.9299278259277,525.9220600128174,1368,1
32,quadbright,10.0,20,1,231.1081886291504,525.7279872894287,1115,1
33,quadbright,11.0,20,1,534.3329906463623,534.329891204834,1153,1
34,quadbright,12.0,20,1,395.0021266937256,394.9999809265137,945,1
35,quadbright,13.0,20,1,592.0381546020508,592.0369625091553,1024,1
36,quadbright,14.0,20,1,496.30117416381836,496.2959289550781,1452,1
37,quadbright,15.0,20,1,504.5161247253418,504.51111793518066,1161,1
38,quadbright,16.0,20,1,484.0879440307617,484.0869903564453,890,1
39,quadbright,17.0,20,1,493.44706535339355,493.4420585632324,1270,1
40,quadbright,18.0,20,1,626.0418891906738,626.0392665863037,964,1
41,quadbright,19.0,20,1,582.4131965637207,582.4131965637207,1299,1
42,quadbright,20.0,20,1,524.2569446563721,524.2540836334229,1012,1
43,quadbright,21.0,20,1,1275.6352424621582,1275.6342887878418,1371,1
44,quadbright,22.0,20,1,486.6292476654053,486.62710189819336,907,1
45,quadbright,23.0,20,1,593.878984451294,593.876838684082,1077,1
46,quadbright,24.0,20,1,592.9882526397705,592.9710865020752,946,1
47,quadbright,25.0,20,1,505.19299507141113,505.1882266998291,1447,1
48,quadbright,26.0,20,1,680.2291870117188,680.2279949188232,833,1
49,quadbright,27.0,20,1,593.3830738067627,593.3799743652344,890,1
50,quadbright,28.0,20,1,593.9650535583496,593.9640998840332,1186,1
51,quadbright,29.0,20,1,692.2457218170166,692.2428607940674,1051,1
52,quadbright,30.0,20,1,693.4387683868408,693.4309005737305,1392,1
53,quadbright,5.0,17,1,494.81701850891113,494.80509757995605,1221,1
54,quadbright,6.0,17,1,98.92988204956055,506.0999393463135,1279,1
55,quadbright,7.0,17,1,526.710033416748,526.7062187194824,1290,1
56,quadbright,8.0,17,1,198.1050968170166,582.543134689331,994,1
57,quadbright,9.0,17,1,637.0151042938232,637.0100975036621,1016,1
58,quadbright,10.0,17,1,493.2138919830322,493.2079315185547,893,1
59,quadbright,11.0,17,1,197.90077209472656,487.34498023986816,834,1
60,quadbright,12.0,17,1,494.8878288269043,494.8868751525879,1114,1
61,quadbright,13.0,17,1,691.2441253662109,691.2403106689453,1499,1
62,quadbright,14.0,17,1,493.6549663543701,493.6490058898926,1188,1
63,quadbright,15.0,17,1,485.8121871948242,485.8109951019287,872,1
64,quadbright,16.0,17,1,496.86288833618164,496.8588352203369,810,1
65,quadbright,17.0,17,0,198.28200340270996,1199.1081237792969,913,1
66,quadbright,18.0,17,1,593.5547351837158,593.5518741607666,1168,1
67,quadbright,19.0,17,1,592.1528339385986,592.1499729156494,1352,1
68,quadbright,20.0,17,1,398.8380432128906,398.8370895385742,1359,1
69,quadbright,21.0,17,1,493.41416358947754,493.4120178222656,1391,1
70,quadbright,22.0,17,1,978.9159297943115,978.9149761199951,1242,1
71,quadbright,23.0,17,1,501.8761157989502,501.86920166015625,1194,1
72,quadbright,24.0,17,1,591.7618274688721,591.7539596557617,961,1
73,quadbright,25.0,17,1,790.6718254089355,790.6680107116699,869,1
74,quadbright,26.0,17,1,595.750093460083,595.7472324371338,1499,1
75,quadbright,27.0,17,1,582.9439163208008,582.9429626464844,1026,1
76,quadbright,28.0,17,1,624.5849132537842,624.579906463623,1387,1
77,quadbright,29.0,17,1,681.9479465484619,681.9472312927246,1438,1
78,quadbright,30.0,17,1,593.3942794799805,593.3911800384521,881,1
79,quadbright,5.0,17,1,98.98614883422852,395.9357738494873,1112,1
80,quadbright,6.0,17,1,98.56009483337402,394.6809768676758,923,1
81,quadbright,7.0,17,1,99.20597076416016,395.7347869873047,862,1
82,quadbright,8.0,17,1,527.0869731903076,527.076005935669,1407,1
83,quadbright,9.0,17,1,594.2208766937256,594.2199230194092,1035,1
84,quadbright,10.0,17,1,99.18618202209473,396.14105224609375,1380,1
85,quadbright,11.0,17,1,583.2409858703613,583.2400321960449,1165,1
86,quadbright,12.0,17,1,98.34718704223633,425.9459972381592,1082,1
87,quadbright,13.0,17,1,428.2529354095459,428.2519817352295,1225,1
88,quadbright,14.0,17,1,395.83373069763184,395.83301544189453,803,1
89,quadbright,15.0,17,1,492.71702766418457,492.71202087402344,1198,1
90,quadbright,16.0,17,1,493.41583251953125,493.4098720550537,1491,1
91,quadbright,17.0,20,1,1297.7550029754639,1297.7521419525146,811,1
92,quadbright,18.0,17,1,977.7631759643555,977.7622222900391,1197,1
93,quadbright,19.0,17,1,504.9011707305908,504.89115715026855,835,1
94,quadbright,20.0,17,1,392.4429416656494,392.4369812011719,1313,1
95,quadbright,21.0,17,1,395.45392990112305,395.45297622680664,1311,1
96,quadbright,22.0,17,1,793.1110858917236,793.1010723114014,1125,1
97,quadbright,23.0,17,1,482.2232723236084,482.2220802307129,1488,1
98,quadbright,24.0,17,1,495.69010734558105,495.68796157836914,1362,1
99,quadbright,25.0,17,1,594.3038463592529,594.2990779876709,1383,1
100,quadbright,26.0,17,1,494.66490745544434,494.6608543395996,1402,1
101,quadbright,27.0,17,1,427.8268814086914,427.825927734375,1438,1
102,quadbright,28.0,17,1,498.34489822387695,498.34203720092773,966,1
103,quadbright,29.0,17,1,597.9800224304199,597.9759693145752,1212,1
104,quadbright,30.0,17,1,625.2541542053223,625.2460479736328,874,1
105,quadbright,5.0,14,1,97.06425666809082,492.8591251373291,1318,1
106,quadbright,6.0,14,1,295.79710960388184,491.8789863586426,1348,1
107,quadbright,7.0,14,1,96.96602821350098,395.0490951538086,1240,1
108,quadbright,8.0,14,1,98.49786758422852,492.8741455078125,1222,1
109,quadbright,9.0,14,1,98.01101684570312,493.87097358703613,1372,1
110,quadbright,10.0,14,1,490.9250736236572,490.9207820892334,1068,1
111,quadbright,11.0,14,1,493.8039779663086,493.79992485046387,1077,1
112,quadbright,12.0,14,1,594.390869140625,594.3858623504639,1194,0
113,quadbright,12.0,14,1,98.72293472290039,1000.6270408630371,1258,1
114,quadbright,13.0,14,1,494.22717094421387,494.22621726989746,1362,1
115,quadbright,14.0,14,1,493.74914169311523,493.7479496002197,1171,1
116,quadbright,15.0,14,1,495.88608741760254,495.8829879760742,993,1
117,quadbright,16.0,14,1,394.85883712768555,394.852876663208,1246,1
118,quadbright,17.0,20,1,405.03501892089844,405.0312042236328,1442,1
119,quadbright,18.0,14,1,923.1619834899902,923.151969909668,992,1
120,quadbright,19.0,14,1,493.5131072998047,493.5111999511719,1362,1
121,quadbright,20.0,14,1,492.9957389831543,492.99001693725586,1002,1
122,quadbright,21.0,14,1,526.5238285064697,526.5169143676758,903,1
123,quadbright,22.0,14,1,692.0888423919678,692.0871734619141,981,1
124,quadbright,23.0,14,1,394.91796493530273,394.9141502380371,1363,1
125,quadbright,24.0,14,1,525.9652137756348,525.9602069854736,1444,1
126,quadbright,25.0,14,1,592.3330783843994,592.3247337341309,980,1
127,quadbright,26.0,14,1,494.25411224365234,494.25220489501953,1498,1
128,quadbright,27.0,14,1,495.70608139038086,495.70322036743164,1081,1
129,quadbright,28.0,14,1,404.95800971984863,404.9551486968994,1104,1
130,quadbright,29.0,14,1,780.8980941772461,780.8969020843506,932,1
131,quadbright,30.0,14,1,494.8577880859375,494.85278129577637,1025,1
132,quadbright,5.0,14,1,99.09605979919434,504.6811103820801,1199,1
133,quadbright,6.0,14,1,100.29006004333496,394.1912651062012,1354,1
134,quadbright,7.0,14,1,394.881010055542,394.8781490325928,1216,1
135,quadbright,8.0,14,1,98.19316864013672,394.0720558166504,1217,1
136,quadbright,9.0,14,1,494.4639205932617,494.4579601287842,1450,1
137,quadbright,10.0,14,1,526.231050491333,526.2231826782227,873,1
138,quadbright,11.0,14,1,496.07086181640625,496.06990814208984,1207,1
139,quadbright,12.0,14,1,484.0829372406006,484.0822219848633,1275,1
140,quadbright,13.0,14,1,97.25499153137207,525.4449844360352,890,1
141,quadbright,14.0,14,1,101.1509895324707,436.4020824432373,1068,1
142,quadbright,15.0,14,1,492.05589294433594,492.0539855957031,867,1
143,quadbright,16.0,14,1,594.2800045013428,594.2778587341309,815,1
144,quadbright,17.0,18,1,497.4408149719238,497.4358081817627,1136,1
145,quadbright,18.0,14,1,493.92008781433105,493.9148426055908,1103,1
146,quadbright,19.0,14,1,496.18983268737793,496.1888790130615,1450,1
147,quadbright,20.0,14,1,880.6560039520264,880.65505027771,1158,1
148,quadbright,21.0,14,1,495.4957962036133,495.49388885498047,1478,1
149,quadbright,22.0,14,1,395.39384841918945,395.39289474487305,1070,1
150,quadbright,23.0,14,1,491.0249710083008,491.01805686950684,1036,1
151,quadbright,24.0,14,0,595.4010486602783,595.3981876373291,1138,1
152,quadbright,25.0,14,1,492.1867847442627,492.18297004699707,833,1
153,quadbright,26.0,14,0,791.5730476379395,791.572093963623,1062,1
154,quadbright,27.0,14,1,502.277135848999,502.2730827331543,1330,1
155,quadbright,28.0,14,0,788.334846496582,788.3317470550537,1259,1
156,quadbright,29.0,14,0,891.2429809570312,891.2420272827148,1308,1
157,quadbright,30.0,14,0,695.2660083770752,695.2638626098633,947,1
158,quadbright,5.0,11,1,483.2582473754883,483.25610160827637,819,1
159,quadbright,6.0,11,1,98.02794456481934,890.0887966156006,1250,1
160,quadbright,7.0,11,1,592.3199653625488,592.3190116882324,1051,1
161,quadbright,8.0,11,1,97.46932983398438,394.8962688446045,1224,1
162,quadbright,9.0,11,1,395.2820301055908,395.2810764312744,903,1
163,quadbright,10.0,11,1,95.84808349609375,418.16210746765137,954,1
164,quadbright,11.0,11,1,593.6179161071777,593.6160087585449,1131,1
165,quadbright,12.0,11,1,423.4776496887207,423.475980758667,1025,1
166,quadbright,13.0,11,1,812.7920627593994,812.791109085083,1262,1
167,quadbright,14.0,11,1,438.1871223449707,438.17877769470215,1327,1
168,quadbright,15.0,11,1,527.6110172271729,527.60910987854,1144,1
169,quadbright,16.0,11,1,488.9669418334961,488.9650344848633,858,1
170,quadbright,17.0,18,1,395.9519863128662,395.9510326385498,817,1
171,quadbright,18.0,11,1,593.1131839752197,593.1100845336914,1132,1
172,quadbright,19.0,11,1,582.6778411865234,582.676887512207,1240,1
173,quadbright,20.0,11,1,493.01695823669434,493.00575256347656,1472,1
174,quadbright,21.0,11,1,492.9788112640381,492.9769039154053,1043,1
175,quadbright,22.0,11,1,691.4961338043213,691.4899349212646,1112,1
176,quadbright,23.0,11,1,493.83997917175293,493.82996559143066,1322,1
177,quadbright,24.0,17,1,494.9629306793213,494.9610233306885,957,1
178,quadbright,25.0,11,1,587.7928733825684,587.7916812896729,905,1
179,quadbright,26.0,17,1,526.9510746002197,526.9489288330078,933,1
180,quadbright,27.0,11,1,632.519006729126,632.5130462646484,1218,1
181,quadbright,28.0,17,1,494.9188232421875,494.9178695678711,905,1
182,quadbright,29.0,17,1,486.33480072021484,486.33384704589844,815,1
183,quadbright,30.0,17,1,690.5930042266846,690.5899047851562,1334,1
184,quadbright,5.0,11,1,98.89411926269531,484.3752384185791,1026,1
185,quadbright,6.0,11,1,626.929759979248,626.924991607666,1390,1
186,quadbright,7.0,11,1,583.5318565368652,583.5309028625488,1014,1
187,quadbright,8.0,11,1,492.0330047607422,492.02775955200195,1470,1
188,quadbright,9.0,11,1,891.5219306945801,891.5209770202637,1330,1
189,quadbright,10.0,11,1,495.5260753631592,495.52202224731445,1364,1
190,quadbright,11.0,11,1,493.06201934814453,493.0570125579834,994,1
191,quadbright,12.0,11,1,383.9290142059326,383.9280605316162,817,1
192,quadbright,13.0,11,1,485.457181930542,485.4559898376465,1338,1
193,quadbright,14.0,11,1,495.8221912384033,495.8209991455078,809,1
194,quadbright,15.0,11,1,591.2659168243408,591.264009475708,853,1
195,quadbright,16.0,11,1,724.7262001037598,724.7171401977539,1368,1
196,quadbright,17.0,17,1,395.3111171722412,395.3099250793457,1365,1
197,quadbright,18.0,11,1,593.764066696167,593.7609672546387,830,1
198,quadbright,19.0,11,1,627.7580261230469,627.7549266815186,1455,1
199,quadbright,20.0,11,0,795.8352565765381,795.8343029022217,849,1
200,quadbright,21.0,11,1,503.0829906463623,503.0663013458252,1080,1
201,quadbright,22.0,11,1,592.0858383178711,592.0779705047607,1232,1
202,quadbright,23.0,11,0,395.94411849975586,395.93005180358887,1191,1
203,quadbright,24.0,17,1,495.4650402069092,495.4640865325928,1426,1
204,quadbright,25.0,11,1,879.4679641723633,879.4670104980469,1421,1
205,quadbright,26.0,17,1,726.0050773620605,726.0019779205322,1227,1
206,quadbright,27.0,11,1,494.1079616546631,494.0979480743408,1274,1
207,quadbright,28.0,17,0,494.66586112976074,494.66490745544434,1079,1
208,quadbright,29.0,17,0,822.8671550750732,822.8652477264404,1004,1
209,quadbright,30.0,17,1,692.540168762207,692.5380229949951,877,1
210,quadbright,5.0,8,1,520.7271575927734,520.7259654998779,1267,1
211,quadbright,6.0,8,1,595.0798988342285,595.0789451599121,1339,1
212,quadbright,7.0,8,1,228.54304313659668,626.9130706787109,1249,1
213,quadbright,8.0,8,1,400.8052349090576,400.8030891418457,1479,1
214,quadbright,9.0,8,1,197.81994819641113,497.575044631958,802,1
215,quadbright,10.0,8,1,525.8228778839111,525.8190631866455,1284,1
216,quadbright,11.0,8,1,426.5618324279785,426.5577793121338,1074,1
217,quadbright,12.0,8,1,588.1030559539795,588.1021022796631,882,1
218,quadbright,13.0,8,1,723.2239246368408,723.2208251953125,1470,1
219,quadbright,14.0,8,1,494.1890239715576,494.1880702972412,874,1
220,quadbright,15.0,8,1,890.5861377716064,890.58518409729,1094,1
221,quadbright,16.0,8,1,824.1398334503174,824.1307735443115,1238,1
222,quadbright,17.0,17,1,494.8148727416992,494.8101043701172,1019,0
223,quadbright,17.0,17,1,493.8838481903076,493.8828945159912,931,1
224,quadbright,18.0,8,1,497.4210262298584,497.4179267883301,1245,1
225,quadbright,19.0,8,1,798.6330986022949,798.6302375793457,1160,1
226,quadbright,20.0,14,1,496.1390495300293,496.1369037628174,1290,1
227,quadbright,21.0,8,1,593.3818817138672,593.379020690918,1287,1
228,quadbright,22.0,8,1,594.0299034118652,594.0289497375488,1259,1
229,quadbright,23.0,14,1,525.0771045684814,525.0749588012695,1201,1
230,quadbright,24.0,15,1,623.4800815582275,623.4791278839111,1286,1
231,quadbright,25.0,8,1,593.2309627532959,593.2199954986572,804,1
232,quadbright,26.0,15,1,395.9047794342041,395.902156829834,894,1
233,quadbright,27.0,8,0,692.6867961883545,692.6820278167725,1376,1
234,quadbright,28.0,18,1,497.4830150604248,497.4818229675293,1318,1
235,quadbright,29.0,18,1,483.1821918487549,483.18004608154297,1209,1
236,quadbright,30.0,15,0,695.9133148193359,695.9121227264404,1458,1
237,quadbright,5.0,8,1,497.0378875732422,497.03407287597656,1155,1
238,quadbright,6.0,8,1,1022.6340293884277,1022.6321220397949,1406,1
239,quadbright,7.0,8,1,528.1147956848145,528.113842010498,958,1
240,quadbright,8.0,8,1,486.6170883178711,486.6158962249756,1211,1
241,quadbright,9.0,8,1,98.80709648132324,495.5410957336426,1465,1
242,quadbright,10.0,8,1,630.8889389038086,630.882978439331,1382,1
243,quadbright,11.0,8,0,187.51120567321777,583.4841728210449,1116,1
244,quadbright,12.0,8,1,594.0098762512207,594.0051078796387,1106,1
245,quadbright,13.0,8,1,495.38183212280273,495.3792095184326,802,1
246,quadbright,14.0,8,1,790.8821105957031,790.8799648284912,1202,1
247,quadbright,15.0,8,1,780.7221412658691,780.7199954986572,1020,1
248,quadbright,16.0,8,1,693.6659812927246,693.662166595459,1231,1
249,quadbright,17.0,15,1,595.8518981933594,595.8499908447266,1046,1
250,quadbright,18.0,8,1,494.5709705352783,494.5700168609619,1389,1
251,quadbright,19.0,8,1,495.7456588745117,495.73779106140137,963,1
252,quadbright,20.0,14,1,494.8277473449707,494.826078414917,1142,1
253,quadbright,21.0,8,1,495.59807777404785,495.59617042541504,1126,1
254,quadbright,22.0,8,1,802.5381565093994,802.5360107421875,1429,1
255,quadbright,23.0,14,1,595.9012508392334,595.8981513977051,1241,1
256,quadbright,24.0,15,1,682.18994140625,682.1889877319336,840,1
257,quadbright,25.0,8,1,922.3599433898926,922.3551750183105,956,1
258,quadbright,26.0,15,1,624.5219707489014,624.521017074585,1258,1
259,quadbright,27.0,11,1,629.209041595459,629.2061805725098,1382,1
260,quadbright,28.0,18,1,596.7838764190674,596.782922744751,993,1
261,quadbright,29.0,18,1,527.2068977355957,527.1978378295898,1173,1
262,quadbright,30.0,17,1,725.0781059265137,725.0630855560303,1055,1
263,quadbright,5.0,5,1,98.97494316101074,494.4348335266113,1055,1
264,quadbright,6.0,5,1,98.79302978515625,493.70789527893066,1024,1
265,quadbright,7.0,5,1,98.56820106506348,426.6328811645508,1023,1
266,quadbright,8.0,5,1,98.20008277893066,592.5090312957764,1366,1
267,quadbright,9.0,5,1,523.8866806030273,523.8809585571289,1373,1
268,quadbright,10.0,5,1,99.53880310058594,723.5479354858398,1377,1
269,quadbright,11.0,11,1,427.97112464904785,427.96993255615234,825,1
270,quadbright,12.0,5,1,98.5572338104248,592.7741527557373,1457,1
271,quadbright,13.0,5,1,97.04017639160156,878.6661624908447,888,1
272,quadbright,14.0,5,1,694.8392391204834,694.8361396789551,897,1
273,quadbright,15.0,5,0,692.8880214691162,692.8820610046387,1498,1
274,quadbright,16.0,5,0,592.8409099578857,592.8399562835693,883,1
275,quadbright,17.0,15,1,493.2680130004883,493.26610565185547,1062,1
276,quadbright,18.0,5,1,592.0250415802002,592.0231342315674,1003,1
277,quadbright,19.0,5,0,602.4379730224609,602.4329662322998,1269,1
278,quadbright,20.0,12,1,532.059907913208,532.0568084716797,1204,1
279,quadbright,21.0,5,1,794.2869663238525,794.2860126495361,1088,1
280,quadbright,22.0,5,0,792.428731918335,792.4258708953857,922,1
281,quadbright,23.0,12,1,599.0231037139893,599.0190505981445,901,1
282,quadbright,24.0,14,1,386.68203353881836,386.68012619018555,1132,1
283,quadbright,25.0,5,1,695.6980228424072,695.6949234008789,1116,1
284,quadbright,26.0,14,1,694.3669319152832,694.3659782409668,1001,1
285,quadbright,27.0,11,0,695.6326961517334,695.6300735473633,817,1
286,quadbright,28.0,17,1,593.0430889129639,593.040943145752,925,1
287,quadbright,29.0,17,1,581.0391902923584,581.038236618042,1450,1
288,quadbright,30.0,17,0,880.8512687683105,880.8503150939941,1245,1
289,quadbright,5.0,5,1,495.1438903808594,495.13888359069824,1429,1
290,quadbright,6.0,5,1,95.23701667785645,484.5149517059326,1417,1
291,quadbright,7.0,5,1,200.1819610595703,593.9900875091553,806,1
292,quadbright,8.0,5,1,189.1181468963623,487.66088485717773,997,1
293,quadbright,9.0,5,1,482.64098167419434,482.64002799987793,1246,1
294,quadbright,10.0,5,1,824.0041732788086,823.9929676055908,1280,1
295,quadbright,11.0,11,1,594.5408344268799,594.5398807525635,952,1
296,quadbright,12.0,5,0,99.51591491699219,706.8889141082764,1402,0
297,quadbright,12.0,5,1,592.0100212097168,592.0031070709229,935,1
298,quadbright,13.0,5,1,694.1299438476562,694.1237449645996,1451,1
299,quadbright,14.0,5,0,626.0378360748291,626.0349750518799,1043,1
300,quadbright,15.0,8,1,583.1339359283447,583.1329822540283,814,1
301,quadbright,16.0,8,1,593.4600830078125,593.4579372406006,1237,1
302,quadbright,17.0,14,1,890.897274017334,890.8932209014893,1326,1
303,quadbright,18.0,5,0,593.7151908874512,593.7142372131348,1020,1
304,quadbright,19.0,8,0,494.51398849487305,494.51279640197754,1290,1
305,quadbright,20.0,12,1,483.19101333618164,483.18982124328613,1476,1
306,quadbright,21.0,5,0,591.9921398162842,591.9890403747559,1038,1
307,quadbright,22.0,8,1,600.5778312683105,600.5771160125732,1225,1
308,quadbright,23.0,12,1,484.6930503845215,484.6920967102051,948,1
309,quadbright,24.0,14,1,487.443208694458,487.4410629272461,1265,1
310,quadbright,25.0,5,0,802.4578094482422,802.4559020996094,1208,1
311,quadbright,26.0,14,1,493.1678771972656,493.1659698486328,1117,1
312,quadbright,27.0,12,1,891.3400173187256,891.33620262146,1365,1
313,quadbright,28.0,17,1,494.40908432006836,494.40598487854004,1499,1
314,quadbright,29.0,17,1,625.2679824829102,625.2622604370117,918,1
315,quadbright,30.0,18,1,624.7649192810059,624.7591972351074,1345,1
316,quadbright,5.0,2,0,98.08015823364258,1724.398136138916,1267,1
317,quadbright,6.0,2,1,98.93298149108887,901.3700485229492,934,1
318,quadbright,7.0,2,1,99.35402870178223,527.5020599365234,973,1
319,quadbright,8.0,2,0,100.80099105834961,494.85015869140625,1010,1
320,quadbright,9.0,2,1,690.5379295349121,690.5179023742676,856,1
321,quadbright,10.0,2,0,603.7499904632568,603.7452220916748,1393,1
322,quadbright,11.0,9,1,491.24789237976074,491.2419319152832,971,1
323,quadbright,12.0,2,0,792.039155960083,792.0382022857666,977,1
324,quadbright,13.0,2,0,692.2147274017334,692.2099590301514,939,1
325,quadbright,14.0,8,1,484.0860366821289,484.0850830078125,1311,1
326,quadbright,15.0,8,1,625.2942085266113,625.2942085266113,1251,1
327,quadbright,16.0,8,1,1033.541202545166,1033.5381031036377,1177,1
328,quadbright,17.0,14,1,493.50666999816895,493.5009479522705,1023,1
329,quadbright,18.0,8,1,496.92797660827637,496.92702293395996,979,1
330,quadbright,19.0,11,1,494.5087432861328,494.5077896118164,887,1
331,quadbright,20.0,11,1,395.81823348999023,395.8170413970947,953,1
332,quadbright,21.0,8,1,496.3970184326172,496.3951110839844,804,1
333,quadbright,22.0,8,1,593.5287475585938,593.5249328613281,1493,1
334,quadbright,23.0,11,1,888.6928558349609,888.6849880218506,957,1
335,quadbright,24.0,12,1,693.596363067627,693.5951709747314,1062,1
336,quadbright,25.0,8,1,594.419002532959,594.3970680236816,1378,1
337,quadbright,26.0,12,1,591.6810035705566,591.6781425476074,1440,1
338,quadbright,27.0,12,1,695.4128742218018,695.410966873169,1437,1
339,quadbright,28.0,16,1,593.6570167541504,593.6529636383057,915,1
340,quadbright,29.0,16,0,713.4358882904053,713.4349346160889,912,1
341,quadbright,30.0,18,1,526.2050628662109,526.1809825897217,1286,1
342,quadbright,5.0,5,1,90.72375297546387,485.8858585357666,1490,1
343,quadbright,6.0,2,1,99.6088981628418,592.6191806793213,1395,1
344,quadbright,7.0,2,0,493.94822120666504,493.9401149749756,1247,1
345,quadbright,8.0,5,0,99.22099113464355,702.0950317382812,1227,1
346,quadbright,9.0,2,0,693.9470767974854,693.9411163330078,829,1
347,quadbright,10.0,5,1,682.6741695404053,682.6732158660889,1397,1
348,quadbright,11.0,9,1,494.5399761199951,494.534969329834,1380,1
349,quadbright,12.0,5,0,693.0060386657715,693.0050849914551,1141,1
350,quadbright,13.0,5,1,395.13278007507324,395.1239585876465,1334,1
351,quadbright,14.0,8,1,493.54004859924316,493.53480339050293,993,1
352,quadbright,15.0,6,0,526.7021656036377,526.7000198364258,829,1
353,quadbright,16.0,6,0,527.0428657531738,527.0371437072754,828,1
354,quadbright,17.0,12,1,485.9771728515625,485.9762191772461,935,1
355,quadbright,18.0,8,1,692.1508312225342,692.147970199585,926,1
356,quadbright,19.0,11,0,296.875,296.875,1253,1
357,quadbright,20.0,11,1,496.25706672668457,496.25492095947266,1240,1
358,quadbright,21.0,8,1,691.6968822479248,691.694974899292,1178,1
359,quadbright,22.0,6,0,592.9479598999023,592.9453372955322,963,1
360,quadbright,23.0,11,1,494.7540760040283,494.7531223297119,1215,1
361,quadbright,24.0,12,0,490.9970760345459,490.994930267334,919,1
362,quadbright,25.0,8,0,824.0597248077393,824.0540027618408,927,1
363,quadbright,26.0,12,0,925.2312183380127,925.2300262451172,1093,1
364,quadbright,27.0,11,1,494.9471950531006,494.9462413787842,1159,1
365,quadbright,28.0,16,0,601.3939380645752,601.3870239257812,1456,1
366,quadbright,29.0,17,1,425.87971687316895,425.8739948272705,910,1
367,quadbright,30.0,17,1,726.1052131652832,726.0980606079102,1186,1
368,quadbright,5.0,5,1,98.91104698181152,504.3151378631592,988,1
369,quadbright,6.0,1,0,99.0898609161377,891.9277191162109,1300,1
370,quadbright,7.0,5,1,198.20690155029297,593.2111740112305,926,1
371,quadbright,8.0,8,1,385.58411598205566,484.2069149017334,895,1
372,quadbright,9.0,5,1,681.649923324585,681.649923324585,1396,1
373,quadbright,10.0,5,1,98.01101684570312,692.2729015350342,941,1
374,quadbright,11.0,8,1,693.3088302612305,693.3069229125977,1212,1
375,quadbright,12.0,8,1,493.4678077697754,493.46280097961426,993,1
376,quadbright,13.0,5,1,593.4238433837891,593.4221744537354,1082,1
377,quadbright,14.0,6,0,394.70887184143066,394.70505714416504,1170,1
378,quadbright,15.0,8,1,601.8550395965576,601.8481254577637,1046,1
379,quadbright,16.0,8,0,581.9971561431885,581.995964050293,1165,1
380,quadbright,17.0,12,1,426.3598918914795,426.35202407836914,1219,1
381,quadbright,18.0,6,0,725.0721454620361,725.0709533691406,1057,1
382,quadbright,19.0,12,1,524.6529579162598,524.651050567627,896,1
383,quadbright,20.0,9,0,526.8948078155518,526.8938541412354,1356,1
384,quadbright,21.0,6,0,492.69890785217285,492.68388748168945,1078,1
385,quadbright,22.0,8,1,824.6340751647949,824.6321678161621,1095,1
386,quadbright,23.0,9,1,502.2308826446533,502.2282600402832,1250,1
387,quadbright,24.0,14,1,1022.5229263305664,1022.52197265625,1352,1
388,quadbright,25.0,9,1,428.0591011047363,428.04908752441406,928,1
389,quadbright,26.0,14,0,734.1229915618896,734.1158390045166,1312,1
390,quadbright,27.0,11,0,726.356029510498,726.3548374176025,959,1
391,quadbright,28.0,17,1,592.2832489013672,592.2741889953613,1047,1
392,quadbright,29.0,17,1,692.6069259643555,692.6031112670898,1175,1
393,quadbright,30.0,17,1,483.6139678955078,483.6130142211914,1240,1
