trial,condition,eccentricity,magnitude,correct,srt_ms,keyboard_rt_ms,pre_change_ms,valid
1,control,5.0,20,1,1393.6538696289062,1393.653154373169,1315,1
2,control,6.0,20,1,99.49183464050293,1428.3788204193115,1433,1
3,control,7.0,20,1,89.65396881103516,583.7247371673584,1120,1
4,control,8.0,20,1,99.57504272460938,582.5128555297852,991,1
5,control,9.0,20,1,813.3540153503418,813.3530616760254,1213,1
6,control,10.0,20,1,691.4241313934326,691.4241313934326,993,1
7,control,11.0,20,1,99.05195236206055,1022.7701663970947,858,1
8,control,12.0,20,1,894.1891193389893,894.1869735717773,1434,1
9,control,13.0,20,1,879.5168399810791,879.5158863067627,1429,1
10,control,14.0,20,1,1011.2979412078857,1011.2972259521484,950,1
11,control,15.0,20,1,1396.0089683532715,1396.0049152374268,1439,1
12,control,16.0,20,1,29579.564094543457,29579.559087753296,1488,1
13,control,17.0,20,1,1080.34086227417,1080.3399085998535,1039,1
14,control,18.0,20,1,1089.3580913543701,1089.3580913543701,914,1
15,control,19.0,20,1,979.6032905578613,979.6023368835449,988,1
16,control,20.0,20,1,1023.0600833892822,1023.0588912963867,865,1
17,control,21.0,20,1,1386.5442276000977,1386.5430355072021,1254,1
18,control,22.0,20,1,2022.9520797729492,2022.9368209838867,1168,1
19,control,23.0,20,1,1427.809238433838,1427.8030395507812,994,1
20,control,24.0,20,1,1478.5280227661133,1478.5270690917969,1326,1
21,control,25.0,20,1,824.674129486084,824.6729373931885,984,1
22,control,26.0,20,1,1484.9929809570312,1484.9908351898193,956,1
23,control,27.0,20,1,1089.6599292755127,1089.6589756011963,1389,1
24,control,28.0,20,1,1297.1861362457275,1297.1820831298828,1217,1
25,control,29.0,20,1,1000.0910758972168,1000.0879764556885,1398,1
26,control,30.0,20,1,1715.9929275512695,1715.9910202026367,1374,1
27,control,5.0,20,1,98.44088554382324,891.8371200561523,810,1
28,control,6.0,20,1,98.26874732971191,791.8720245361328,1372,1
29,control,7.0,20,1,98.8161563873291,693.0222511291504,1214,1
30,control,8.0,20,1,681.0009479522705,680.9999942779541,1399,1
31,control,9.0,20,1,101.07111930847168,1022.4292278289795,1343,1
32,control,10.0,20,1,889.0359401702881,889.030933380127,820,1
33,control,11.0,20,1,978.5580635070801,978.5568714141846,1499,1
34,control,12.0,20,1,690.8340454101562,690.831184387207,1057,1
35,control,13.0,20,1,889.26100730896,889.2569541931152,1484,1
36,control,14.0,20,1,724.9727249145508,724.9677181243896,1228,1
37,control,15.0,20,1,780.6999683380127,780.6992530822754,1337,1
38,control,16.0,20,1,889.4379138946533,889.4362449645996,1274,1
39,control,17.0,20,1,814.3079280853271,814.3069744110107,1451,1
40,control,18.0,20,1,1224.8787879943848,1224.876880645752,1036,1
41,control,19.0,20,1,1289.7400856018066,1289.7391319274902,999,1
42,control,20.0,20,1,1308.2458972930908,1308.2449436187744,1016,1
43,control,21.0,20,1,1176.820993423462,1176.8200397491455,961,1
44,control,22.0,20,1,1296.53000831604,1296.5240478515625,1446,1
45,control,23.0,20,1,980.6399345397949,980.6389808654785,1459,1
46,control,24.0,20,1,1079.7858238220215,1079.7858238220215,1268,1
47,control,25.0,20,1,912.1420383453369,912.1408462524414,1058,1
48,control,26.0,20,1,879.9712657928467,879.9700736999512,1019,1
49,control,27.0,20,1,880.9349536895752,880.9328079223633,1227,1
50,control,28.0,20,1,878.7851333618164,878.7841796875,1153,1
51,control,29.0,20,1,990.0650978088379,990.0600910186768,1275,1
52,control,30.0,20,1,1525.918960571289,1525.9120464324951,987,1
53,control,5.0,17,1,197.6451873779297,978.3749580383301,1391,1
54,control,6.0,17,0,99.64990615844727,1912.1670722961426,1433,1
55,control,7.0,17,1,89.7068977355957,880.9657096862793,1387,1
56,control,8.0,17,1,98.38414192199707,615.1411533355713,1259,1
57,control,9.0,17,1,716.3300514221191,716.3290977478027,1385,1
58,control,10.0,17,1,582.7147960662842,582.7147960662842,1287,1
59,control,11.0,17,1,601.5119552612305,601.5098094940186,1027,1
60,control,12.0,17,1,791.9750213623047,791.9697761535645,1499,1
61,control,13.0,17,1,782.526969909668,782.526969909668,1334,1
62,control,14.0,17,1,583.3983421325684,583.3971500396729,853,1
63,control,15.0,17,1,779.9310684204102,779.9298763275146,1354,1
64,control,16.0,17,1,593.9760208129883,593.966007232666,1033,1
65,control,17.0,17,1,493.73698234558105,493.7300682067871,964,1
66,control,18.0,17,1,603.4388542175293,603.4348011016846,1301,1
67,control,19.0,17,1,593.4200286865234,593.4169292449951,896,1
68,control,20.0,17,1,696.4561939239502,696.4540481567383,857,1
69,control,21.0,17,1,594.3238735198975,594.322919845581,1163,1
70,control,22.0,17,1,900.7859230041504,900.7828235626221,1016,1
71,control,23.0,17,1,880.6936740875244,880.6920051574707,1299,1
72,control,24.0,17,1,780.9770107269287,780.9760570526123,1252,1
73,control,25.0,17,1,832.4368000030518,832.4308395385742,1365,1
74,control,26.0,17,1,979.4046878814697,979.4037342071533,1226,1
75,control,27.0,17,1,979.384183883667,979.3832302093506,801,1
76,control,28.0,17,1,881.0458183288574,881.0458183288574,1427,1
77,control,29.0,17,1,690.5331611633301,690.5272006988525,891,1
78,control,30.0,17,1,822.5882053375244,822.5829601287842,1446,1
79,control,5.0,17,1,97.9928970336914,1089.1568660736084,1462,1
80,control,6.0,20,1,593.5709476470947,593.5699939727783,913,1
81,control,7.0,17,1,790.3461456298828,790.3430461883545,974,1
82,control,8.0,17,1,484.1809272766113,484.1799736022949,1352,1
83,control,9.0,17,1,592.6499366760254,592.6446914672852,1244,1
84,control,10.0,17,1,997.1427917480469,997.1380233764648,1159,1
85,control,11.0,17,1,595.7450866699219,595.7419872283936,1242,1
86,control,12.0,17,1,1086.7102146148682,1086.7083072662354,1339,1
87,control,13.0,17,1,691.0271644592285,691.025972366333,1355,1
88,control,14.0,17,1,891.6029930114746,891.5979862213135,1391,1
89,control,15.0,17,1,682.1939945220947,682.1928024291992,1379,1
90,control,16.0,17,1,1076.483964920044,1076.4827728271484,1201,1
91,control,17.0,17,1,978.2998561859131,978.2991409301758,1344,1
92,control,18.0,17,1,692.5270557403564,692.52610206604,872,1
93,control,19.0,17,1,692.0840740203857,692.0802593231201,1496,1
94,control,20.0,17,1,921.3800430297852,921.3719367980957,838,1
95,control,21.0,17,1,988.3549213409424,988.3508682250977,1351,1
96,control,22.0,17,0,2000.196933746338,2000.1959800720215,1069,1
97,control,23.0,17,1,880.3431987762451,880.3420066833496,1020,1
98,control,24.0,17,1,863.7158870697021,863.7118339538574,879,1
99,control,25.0,17,1,724.2410182952881,724.2369651794434,1016,1
100,control,26.0,17,1,891.3836479187012,891.3819789886475,1315,1
101,control,27.0,17,1,1571.6867446899414,1571.685791015625,1176,1
102,control,28.0,17,1,890.9950256347656,890.9878730773926,975,1
103,control,29.0,17,1,681.3468933105469,681.3459396362305,1230,1
104,control,30.0,17,1,1229.4721603393555,1229.4669151306152,1159,1
105,control,5.0,14,1,195.62697410583496,690.3870105743408,1476,1
106,control,6.0,20,1,197.79729843139648,879.6041011810303,1203,1
107,control,7.0,14,1,200.08277893066406,791.7447090148926,1212,1
108,control,8.0,14,1,101.02415084838867,584.2258930206299,1153,1
109,control,9.0,14,1,581.8021297454834,581.8009376525879,1130,1
110,control,10.0,14,1,583.1921100616455,583.1911563873291,1369,1
111,control,11.0,14,1,697.3598003387451,697.3569393157959,1497,1
112,control,12.0,14,1,493.8828945159912,493.880033493042,1317,1
113,control,13.0,14,1,733.7779998779297,733.7760925292969,1395,1
114,control,14.0,14,1,592.8211212158203,592.8103923797607,1380,1
115,control,15.0,14,1,681.7800998687744,681.7789077758789,1426,1
116,control,16.0,14,1,1011.2712383270264,1011.2690925598145,1176,1
117,control,17.0,14,1,632.9569816589355,632.9548358917236,829,1
118,control,18.0,14,1,492.7411079406738,492.7370548248291,1168,1
119,control,19.0,14,1,614.7911548614502,614.7911548614502,1122,1
120,control,20.0,14,1,1209.7852230072021,1209.7840309143066,1273,1
121,control,21.0,14,1,593.9629077911377,593.9579010009766,1392,1
122,control,22.0,20,1,691.7109489440918,691.6990280151367,1195,1
123,control,23.0,14,1,789.4241809844971,789.4210815429688,1145,1
124,control,24.0,14,1,502.5951862335205,502.5908946990967,965,1
125,control,25.0,14,1,595.1800346374512,595.1759815216064,1403,1
126,control,26.0,14,1,626.8301010131836,626.823902130127,1431,1
127,control,27.0,14,1,515.1088237762451,515.1078701019287,1301,1
128,control,28.0,14,1,593.958854675293,593.9540863037109,1434,1
129,control,29.0,14,1,947.8960037231445,947.8950500488281,1348,1
130,control,30.0,14,1,791.6209697723389,791.6181087493896,1383,1
131,control,5.0,14,1,97.88680076599121,592.5579071044922,1363,1
132,control,6.0,18,1,198.43101501464844,691.9169425964355,1490,1
133,control,7.0,14,1,197.0980167388916,494.17972564697266,1495,1
134,control,8.0,14,1,604.6230792999268,604.619026184082,1188,1
135,control,9.0,14,1,98.11711311340332,787.060022354126,1115,1
136,control,10.0,14,1,101.12404823303223,593.6379432678223,919,1
137,control,11.0,14,1,695.1701641082764,695.16921043396,800,1
138,control,12.0,14,1,594.3050384521484,594.3019390106201,1398,1
139,control,13.0,14,1,602.6890277862549,602.6871204376221,1001,1
140,control,14.0,14,1,596.1720943450928,596.1709022521973,1195,1
141,control,15.0,14,1,494.59290504455566,494.59099769592285,1358,1
142,control,16.0,14,1,593.6880111694336,593.6870574951172,1071,1
143,control,17.0,14,1,593.1117534637451,593.1079387664795,1027,1
144,control,18.0,14,1,605.0369739532471,605.0319671630859,1182,1
145,control,19.0,14,1,492.28477478027344,492.2778606414795,1369,1
146,control,20.0,14,1,681.786060333252,681.786060333252,1036,1
147,control,21.0,14,1,790.0779247283936,790.0710105895996,916,1
148,control,22.0,20,1,614.8440837860107,614.8431301116943,863,1
149,control,23.0,14,1,526.4358520507812,526.432991027832,886,1
150,control,24.0,14,1,789.8769378662109,789.874792098999,1033,1
151,control,25.0,14,1,680.9086799621582,680.9079647064209,1126,1
152,control,26.0,14,1,691.5688514709473,691.565990447998,812,1
153,control,27.0,14,1,1473.893165588379,1473.8922119140625,909,1
154,control,28.0,14,1,812.3440742492676,812.3431205749512,1445,1
155,control,29.0,14,1,896.575927734375,896.5740203857422,1117,1
156,control,30.0,14,0,1771.5919017791748,1771.5907096862793,1311,1
157,control,5.0,11,1,229.46882247924805,712.8880023956299,1066,1
158,control,6.0,18,1,636.5671157836914,636.5630626678467,864,1
159,control,7.0,11,1,98.7849235534668,603.6050319671631,875,1
160,control,8.0,11,1,98.06013107299805,681.4131736755371,1353,1
161,control,9.0,11,1,722.5620746612549,722.5542068481445,850,1
162,control,10.0,11,1,692.1942234039307,692.1870708465576,1238,1
163,control,11.0,11,1,590.8451080322266,590.8410549163818,1394,1
164,control,12.0,11,1,695.69993019104,695.6989765167236,1081,1
165,control,13.0,11,1,1473.8740921020508,1473.8729000091553,1042,1
166,control,14.0,11,1,693.274736404419,693.2740211486816,848,1
167,control,15.0,11,1,493.85595321655273,493.8521385192871,1430,1
168,control,16.0,11,1,635.5037689208984,635.4978084564209,1432,1
169,control,17.0,11,1,724.2999076843262,724.2960929870605,1416,1
170,control,18.0,11,1,834.4979286193848,834.4972133636475,874,1
171,control,19.0,11,1,988.6338710784912,988.6319637298584,1080,1
172,control,20.0,11,1,582.6659202575684,582.664966583252,1225,1
173,control,21.0,11,1,1077.5401592254639,1077.5389671325684,886,1
174,control,22.0,18,1,594.5501327514648,594.5439338684082,1028,1
175,control,23.0,11,1,896.6660499572754,896.6641426086426,879,1
176,control,24.0,11,1,614.7210597991943,614.7201061248779,1496,1
177,control,25.0,11,1,1308.037281036377,1308.0360889434814,926,1
178,control,26.0,11,1,594.5310592651367,594.5298671722412,1338,1
179,control,27.0,11,1,680.7999610900879,680.7990074157715,1478,1
180,control,28.0,11,1,595.2699184417725,595.2661037445068,1213,1
181,control,29.0,11,1,593.1150913238525,593.1131839752197,812,1
182,control,30.0,17,1,587.2821807861328,587.2800350189209,1053,1
183,control,5.0,11,1,98.59991073608398,701.5140056610107,1111,1
184,control,6.0,17,1,296.6477870941162,691.3762092590332,1221,1
185,control,7.0,11,1,502.6228427886963,502.6211738586426,923,1
186,control,8.0,11,1,206.76922798156738,702.578067779541,1334,1
187,control,9.0,11,1,725.64697265625,725.6450653076172,1449,1
188,control,10.0,11,1,198.79913330078125,693.0372714996338,1465,1
189,control,11.0,11,1,1406.8260192871094,1406.825065612793,1010,1
190,control,12.0,11,1,681.0059547424316,681.0050010681152,828,1
191,control,13.0,11,1,693.3169364929199,693.3128833770752,1300,1
192,control,14.0,11,1,790.734052658081,790.7299995422363,839,1
193,control,15.0,11,1,494.0032958984375,494.0001964569092,887,1
194,control,16.0,11,1,882.2450637817383,882.2441101074219,850,1
195,control,17.0,11,1,593.250036239624,593.2409763336182,1195,1
196,control,18.0,11,1,624.9260902404785,624.9113082885742,1055,1
197,control,19.0,11,1,723.0210304260254,723.0162620544434,1079,1
198,control,20.0,11,1,704.3359279632568,704.3321132659912,1444,1
199,control,21.0,11,1,891.014814376831,891.0121917724609,946,1
200,control,22.0,18,1,586.5399837493896,586.5399837493896,1216,1
201,control,23.0,11,1,692.7871704101562,692.7821636199951,1238,1
202,control,24.0,11,1,592.5371646881104,592.5321578979492,1077,1
203,control,25.0,11,0,1210.7961177825928,1210.7939720153809,1094,1
204,control,26.0,11,1,681.5519332885742,681.5509796142578,1313,1
205,control,27.0,11,1,1407.2329998016357,1407.2329998016357,893,1
206,control,28.0,11,1,693.5899257659912,693.5868263244629,937,1
207,control,29.0,11,1,1286.7581844329834,1286.757230758667,980,1
208,control,30.0,17,1,891.4580345153809,891.455888748169,1369,1
209,control,5.0,8,1,187.2110366821289,583.1561088562012,1162,1
210,control,6.0,17,1,98.39200973510742,583.6961269378662,1293,1
211,control,7.0,8,1,195.73092460632324,791.0828590393066,1243,1
212,control,8.0,8,1,592.6299095153809,592.6249027252197,1169,1
213,control,9.0,8,1,198.66704940795898,595.0391292572021,1265,1
214,control,10.0,8,1,494.5111274719238,494.5058822631836,1201,1
215,control,11.0,8,1,524.6298313140869,524.6288776397705,834,1
216,control,12.0,8,1,723.4396934509277,723.4349250793457,1138,1
217,control,13.0,8,1,526.9629955291748,526.9618034362793,1277,1
218,control,14.0,8,1,596.2491035461426,596.2460041046143,1157,1
219,control,15.0,8,1,594.0227508544922,594.0210819244385,1347,1
220,control,16.0,8,1,625.5817413330078,625.5791187286377,1199,1
221,control,17.0,8,1,803.1620979309082,803.1570911407471,842,1
222,control,18.0,8,1,792.2470569610596,792.2439575195312,844,1
223,control,19.0,8,1,800.529956817627,800.5251884460449,996,1
224,control,20.0,8,1,592.3337936401367,592.3309326171875,1075,1
225,control,21.0,8,0,1725.8360385894775,1725.830078125,1059,1
226,control,22.0,17,1,781.8779945373535,781.8770408630371,1317,1
227,control,23.0,8,1,691.2603378295898,691.2572383880615,943,1
228,control,24.0,8,1,894.4671154022217,894.4661617279053,1046,1
229,control,25.0,14,1,492.53225326538086,492.53034591674805,1498,1
230,control,26.0,8,0,880.9220790863037,880.9199333190918,1006,1
231,control,27.0,8,1,1276.9081592559814,1276.907205581665,1042,1
232,control,28.0,8,1,2011.9659900665283,2011.9612216949463,1161,1
233,control,29.0,8,1,1673.583984375,1673.5830307006836,1303,1
234,control,30.0,15,1,591.1469459533691,591.1428928375244,1444,1
235,control,5.0,8,1,199.3560791015625,681.3979148864746,1063,1
236,control,6.0,15,1,98.97899627685547,494.9209690093994,1330,1
237,control,7.0,8,1,198.45008850097656,923.2990741729736,1057,1
238,control,8.0,8,1,197.5078582763672,681.8709373474121,1151,1
239,control,9.0,8,1,492.2158718109131,492.203950881958,1037,1
240,control,10.0,8,1,230.5140495300293,725.1999378204346,810,1
241,control,11.0,8,1,493.21603775024414,493.2129383087158,1085,1
242,control,12.0,8,1,593.0407047271729,593.0390357971191,1334,1
243,control,13.0,8,1,899.9290466308594,899.925947189331,1058,1
244,control,14.0,8,1,592.6458835601807,592.6380157470703,895,1
245,control,15.0,8,1,497.2207546234131,497.2198009490967,1478,1
246,control,16.0,8,0,1195.7859992980957,1195.7807540893555,1477,1
247,control,17.0,8,1,594.8038101196289,594.8007106781006,860,1
248,control,18.0,8,1,493.78204345703125,493.77894401550293,1439,1
249,control,19.0,8,1,1231.1878204345703,1231.184959411621,1378,1
250,control,20.0,8,1,724.2119312286377,724.2069244384766,1055,1
251,control,21.0,11,1,694.504976272583,694.4997310638428,1003,1
252,control,22.0,17,1,593.1639671325684,593.1611061096191,1109,1
253,control,23.0,8,1,988.8341426849365,988.8310432434082,1077,1
254,control,24.0,8,1,98.77181053161621,1924.1080284118652,960,1
255,control,25.0,14,1,881.4089298248291,881.4079761505127,875,1
256,control,26.0,11,0,1283.5779190063477,1283.5750579833984,972,1
257,control,27.0,8,0,2571.0511207580566,2571.0432529449463,1457,1
258,control,28.0,8,0,791.5139198303223,791.510820388794,1370,1
259,control,29.0,8,1,1185.6842041015625,1185.6789588928223,1048,1
260,control,30.0,15,0,1513.7050151824951,1513.700008392334,840,1
261,control,5.0,5,1,197.65520095825195,723.5631942749023,806,1
262,control,6.0,15,1,197.23176956176758,690.4027462005615,861,1
263,control,7.0,5,1,296.3991165161133,691.5640830993652,1195,1
264,control,8.0,5,1,1373.405933380127,1373.405933380127,1118,1
265,control,9.0,5,1,97.73516654968262,492.811918258667,1316,1
266,control,10.0,5,1,495.27502059936523,495.2719211578369,1404,1
267,control,11.0,5,1,99.12705421447754,505.58996200561523,970,1
268,control,12.0,5,1,989.9859428405762,989.9849891662598,1449,1
269,control,13.0,5,0,924.2103099822998,924.2050647735596,1060,1
270,control,14.0,5,1,1002.0718574523926,1002.068042755127,1036,1
271,control,15.0,5,1,1416.6641235351562,1416.661024093628,1491,1
272,control,16.0,11,0,890.1028633117676,890.0949954986572,892,1
273,control,17.0,5,1,1011.1098289489746,1011.1086368560791,1220,1
274,control,18.0,5,0,1310.2309703826904,1310.2288246154785,1452,1
275,control,19.0,5,0,2206.1870098114014,2206.1829566955566,1037,1
276,control,20.0,5,1,2980.6580543518066,2980.652093887329,1384,1
277,control,21.0,11,1,525.9850025177002,525.9768962860107,1336,1
278,control,22.0,15,1,526.3700485229492,526.3679027557373,1236,1
279,control,23.0,5,1,899.604320526123,899.6021747589111,1495,1
280,control,24.0,5,0,1870.154857635498,1870.1539039611816,1448,1
281,control,25.0,12,1,691.5578842163086,691.5566921234131,930,1
282,control,26.0,14,1,892.1947479248047,892.193078994751,1214,1
283,control,27.0,11,1,1229.614019393921,1229.6109199523926,1186,1
284,control,28.0,11,0,797.7380752563477,797.7359294891357,1418,1
285,control,29.0,5,0,1175.908088684082,1175.9068965911865,1145,1
286,control,30.0,17,1,1011.3341808319092,1011.3332271575928,996,1
287,control,5.0,5,1,197.45397567749023,692.2030448913574,1283,1
288,control,6.0,14,1,495.441198348999,495.434045791626,1196,1
289,control,7.0,5,1,99.95818138122559,595.0002670288086,1316,1
290,control,8.0,5,1,198.54092597961426,1088.0210399627686,989,1
291,control,9.0,5,1,197.56007194519043,891.9970989227295,1076,1
292,control,10.0,5,1,1132.3540210723877,1132.350206375122,1252,1
293,control,11.0,5,1,628.3929347991943,628.3888816833496,1134,1
294,control,12.0,5,0,1022.0427513122559,1022.0417976379395,1072,1
295,control,13.0,8,1,691.6179656982422,691.6117668151855,1216,1
296,control,14.0,5,1,1091.1779403686523,1091.174840927124,1309,1
297,control,15.0,5,0,1087.980031967163,1087.9747867584229,1124,1
298,control,16.0,14,1,690.9871101379395,690.9830570220947,1215,1
299,control,17.0,5,1,1373.4710216522217,1373.4698295593262,1473,1
300,control,18.0,8,1,1197.9320049285889,1197.930097579956,968,1
301,control,19.0,8,1,692.7332878112793,692.7280426025391,1207,1
302,control,20.0,5,0,693.164587020874,693.1636333465576,1286,1
303,control,21.0,9,1,693.4516429901123,693.4478282928467,982,1
304,control,22.0,15,1,594.8162078857422,594.810962677002,1040,1
305,control,23.0,5,1,1715.6479358673096,1715.6479358673096,991,1
306,control,24.0,8,0,979.4721603393555,979.4712066650391,1151,1
307,control,25.0,12,1,1209.0299129486084,1209.029197692871,1025,1
308,control,26.0,14,1,491.84679985046387,491.84393882751465,841,1
309,control,27.0,11,0,1010.991096496582,1010.9901428222656,1241,1
310,control,28.0,14,1,783.5109233856201,783.5099697113037,1439,1
311,control,29.0,8,0,1308.0010414123535,1307.999849319458,1123,1
312,control,30.0,17,1,693.1071281433105,693.1061744689941,1377,1
313,control,5.0,2,1,98.94895553588867,1704.0519714355469,806,1
314,control,6.0,14,1,200.93798637390137,595.0887203216553,891,1
315,control,7.0,2,1,1187.2150897979736,1187.2131824493408,1148,1
316,control,8.0,2,0,98.16884994506836,1283.8079929351807,1484,1
317,control,9.0,2,1,100.24881362915039,1110.7690334320068,1265,1
318,control,10.0,2,0,1184.014081954956,1184.0100288391113,867,1
319,control,11.0,2,1,979.525089263916,979.5241355895996,1432,1
320,control,12.0,8,1,624.5307922363281,624.5167255401611,947,1
321,control,13.0,8,1,692.8510665893555,692.8479671478271,1465,1
322,control,14.0,2,1,890.3579711914062,890.3517723083496,1349,1
323,control,15.0,8,1,494.1859245300293,494.182825088501,1176,1
324,control,16.0,14,1,593.4576988220215,593.451976776123,1143,1
325,control,17.0,2,1,1715.6639099121094,1715.663194656372,1003,1
326,control,18.0,8,1,593.0941104888916,593.087911605835,1275,1
327,control,19.0,8,1,593.6532020568848,593.64914894104,1408,1
328,control,20.0,8,1,703.3758163452148,703.373908996582,1219,1
329,control,21.0,9,1,591.8488502502441,591.8416976928711,853,1
330,control,22.0,14,1,625.4017353057861,625.3960132598877,989,1
331,control,23.0,2,1,592.8189754486084,592.8170680999756,964,1
332,control,24.0,11,1,605.043888092041,605.0360202789307,1345,1
333,control,25.0,11,1,802.3941516876221,802.3910522460938,941,1
334,control,26.0,12,1,693.8197612762451,693.8149929046631,894,1
335,control,27.0,12,1,812.6299381256104,812.6280307769775,951,1
336,control,28.0,14,1,792.7398681640625,792.7348613739014,1140,1
337,control,29.0,11,1,582.4849605560303,582.4837684631348,1003,1
338,control,30.0,16,0,998.441219329834,998.4390735626221,997,1
339,control,5.0,2,1,99.41887855529785,1594.4077968597412,962,1
340,control,6.0,12,1,98.74200820922852,493.56794357299805,1268,1
341,control,7.0,2,0,99.00784492492676,1792.7818298339844,1346,1
342,control,8.0,5,0,197.68404960632324,1217.4079418182373,858,1
343,control,9.0,2,1,1086.40718460083,1086.4019393920898,866,1
344,control,10.0,5,1,1187.9560947418213,1187.9520416259766,1005,1
345,control,11.0,2,0,1429.23903465271,1429.2337894439697,1136,1
346,control,12.0,8,1,702.6441097259521,702.639102935791,1113,1
347,control,13.0,6,0,1903.1729698181152,1903.1720161437988,962,1
348,control,14.0,2,0,1022.0592021942139,1022.0541954040527,810,1
349,control,15.0,8,1,525.8288383483887,525.8259773254395,1342,1
350,control,16.0,12,1,625.7667541503906,625.7638931274414,1239,1
351,control,17.0,2,1,901.2832641601562,901.2789726257324,1472,1
352,control,18.0,6,1,1186.2657070159912,1186.2618923187256,1010,1
353,control,19.0,6,0,998.8069534301758,998.8019466400146,1060,1
354,control,20.0,8,0,593.1267738342285,593.1236743927002,1114,1
355,control,21.0,8,1,1605.3800582885742,1605.3781509399414,1297,1
356,control,22.0,14,0,888.6501789093018,888.6480331420898,1038,1
357,control,23.0,2,1,1088.7179374694824,1088.7150764465332,935,1
358,control,24.0,11,0,987.2791767120361,987.2729778289795,1333,1
359,control,25.0,11,1,682.1599006652832,682.1589469909668,1070,1
360,control,26.0,12,0,1407.0239067077637,1407.0219993591309,1325,1
361,control,27.0,12,1,493.8161373138428,493.81303787231445,1109,1
362,control,28.0,12,1,891.2038803100586,891.1969661712646,839,1
363,control,29.0,11,1,495.0070381164551,495.0060844421387,1419,1
364,control,30.0,17,1,880.7029724121094,880.702018737793,926,1
365,control,5.0,1,0,197.0069408416748,878.4489631652832,1181,1
366,control,6.0,12,1,99.43389892578125,494.1587448120117,1157,1
367,control,7.0,5,1,99.21407699584961,799.4251251220703,899,1
368,control,8.0,8,1,686.0878467559814,686.086893081665,1170,1
369,control,9.0,1,0,98.2210636138916,1869.5919513702393,1430,1
370,control,10.0,5,1,800.2729415893555,800.2629280090332,1261,1
371,control,11.0,5,1,1023.1788158416748,1023.1747627258301,870,1
372,control,12.0,6,1,1315.5598640441895,1315.558910369873,925,1
373,control,13.0,8,1,725.2628803253174,725.2628803253174,1015,1
374,control,14.0,5,1,1020.4918384552002,1020.4901695251465,830,1
375,control,15.0,6,1,1208.867073059082,1208.8661193847656,1358,1
376,control,16.0,12,1,637.3381614685059,637.336254119873,1000,1
377,control,17.0,1,0,891.1471366882324,891.1459445953369,1328,1
378,control,18.0,6,0,594.2249298095703,594.2237377166748,828,1
379,control,19.0,8,1,494.60411071777344,494.6022033691406,1191,1
380,control,20.0,9,0,626.2598037719727,626.2578964233398,900,1
381,control,21.0,8,1,912.1921062469482,912.1921062469482,817,1
382,control,22.0,15,1,692.0719146728516,692.0669078826904,1360,1
383,control,23.0,1,0,1321.484088897705,1321.479082107544,860,1
384,control,24.0,12,1,590.0030136108398,589.9970531463623,1349,1
385,control,25.0,9,1,879.9722194671631,879.9712657928467,1239,1
386,control,26.0,14,0,680.9437274932861,680.9427738189697,862,1
387,control,27.0,11,0,683.3169460296631,683.3159923553467,1399,1
388,control,28.0,12,1,792.7348613739014,792.733907699585,812,1
389,control,29.0,9,0,823.9381313323975,823.9331245422363,1414,1
390,control,30.0,17,1,692.5308704376221,692.5270557403564,1248,1
1,quadbright,5.0,20,1,7093.66512298584,7093.662977218628,1269,1
2,quadbright,6.0,20,1,99.13325309753418,593.3811664581299,1213,1
3,quadbright,7.0,20,1,198.0757713317871,791.9847965240479,1406,1
4,quadbright,8.0,20,1,98.31976890563965,483.24084281921387,1226,1
5,quadbright,9.0,20,1,702.8510570526123,702.8460502624512,1061,1
6,quadbright,10.0,20,1,724.7941493988037,724.7910499572754,1470,1
7,quadbright,11.0,20,1,692.9011344909668,692.9001808166504,1483,1
8,quadbright,12.0,20,1,791.3150787353516,791.3129329681396,1187,1
9,quadbright,13.0,20,1,781.0864448547363,781.0852527618408,1481,1
10,quadbright,14.0,20,1,890.3830051422119,890.3770446777344,1052,1
11,quadbright,15.0,20,1,978.7299633026123,978.7287712097168,1204,1
12,quadbright,16.0,20,1,899.9307155609131,899.9290466308594,959,1
13,quadbright,17.0,20,0,10106.33659362793,10106.33373260498,979,1
14,quadbright,18.0,20,1,1089.0629291534424,1089.0588760375977,1173,1
15,quadbright,19.0,20,1,1197.8669166564941,1197.8600025177002,1114,1
16,quadbright,20.0,20,1,814.0702247619629,814.0702247619629,1364,1
17,quadbright,21.0,20,1,1506.0279369354248,1506.026029586792,896,1
18,quadbright,22.0,20,1,979.1300296783447,979.1288375854492,1241,1
19,quadbright,23.0,20,1,987.2698783874512,987.2689247131348,1103,1
20,quadbright,24.0,20,1,824.7230052947998,824.7220516204834,904,1
21,quadbright,25.0,20,1,978.701114654541,978.7001609802246,904,1
22,quadbright,26.0,20,1,978.6100387573242,978.6090850830078,1306,1
23,quadbright,27.0,20,1,1197.7567672729492,1197.7510452270508,1439,1
24,quadbright,28.0,20,1,923.3808517456055,923.3767986297607,942,1
25,quadbright,29.0,20,0,2376.2872219085693,2376.281976699829,995,1
26,quadbright,30.0,20,0,2802.947998046875,2802.947998046875,1343,1
27,quadbright,5.0,20,1,98.69098663330078,998.682975769043,1468,1
28,quadbright,6.0,20,1,197.829008102417,890.531063079834,1125,1
29,quadbright,7.0,20,1,814.072847366333,814.0721321105957,1233,1
30,quadbright,8.0,20,1,131.4718723297119,912.5277996063232,947,1
31,quadbright,9.0,20,1,880.3958892822266,880.3949356079102,924,1
32,quadbright,10.0,20,1,1011.225700378418,1011.2247467041016,1297,1
33,quadbright,11.0,20,1,101.78017616271973,751.1489391326904,1270,1
34,quadbright,12.0,20,1,791.6474342346191,791.6462421417236,1260,1
35,quadbright,13.0,20,1,725.4769802093506,725.4691123962402,1427,1
36,quadbright,14.0,20,1,1176.5282154083252,1176.5272617340088,904,1
37,quadbright,15.0,20,1,891.2489414215088,891.2432193756104,1082,1
38,quadbright,16.0,20,1,878.8559436798096,878.8549900054932,802,1
39,quadbright,17.0,23,1,1276.0820388793945,1276.080846786499,1029,1
40,quadbright,18.0,20,1,591.4449691772461,591.4397239685059,1257,1
41,quadbright,19.0,20,1,681.1258792877197,681.1258792877197,1271,1
42,quadbright,20.0,20,1,880.6071281433105,880.6071281433105,1115,1
43,quadbright,21.0,20,1,886.8470191955566,886.8460655212402,1182,1
44,quadbright,22.0,20,1,593.9610004425049,593.9600467681885,1283,1
45,quadbright,23.0,20,1,1088.479995727539,1088.4761810302734,878,1
46,quadbright,24.0,20,1,725.8081436157227,725.801944732666,933,1
47,quadbright,25.0,20,1,723.9229679107666,723.9201068878174,1366,1
48,quadbright,26.0,20,1,890.9409046173096,890.9366130828857,1394,1
49,quadbright,27.0,20,1,589.928150177002,589.9250507354736,804,1
50,quadbright,28.0,20,1,702.8322219848633,702.826976776123,1460,1
51,quadbright,29.0,23,1,830.8689594268799,830.8637142181396,1446,1
52,quadbright,30.0,23,1,592.0698642730713,592.0619964599609,1324,1
53,quadbright,5.0,17,1,133.09097290039062,725.4347801208496,865,1
54,quadbright,6.0,17,1,100.19397735595703,626.5380382537842,1136,1
55,quadbright,7.0,17,1,100.31914710998535,691.9231414794922,1235,1
56,quadbright,8.0,17,1,99.19309616088867,690.3479099273682,1172,1
57,quadbright,9.0,17,1,780.4439067840576,780.4429531097412,925,1
58,quadbright,10.0,17,1,702.707052230835,702.7018070220947,1389,1
59,quadbright,11.0,17,1,1032.0031642913818,1031.9972038269043,1282,1
60,quadbright,12.0,17,1,1078.564167022705,1078.5629749298096,982,1
61,quadbright,13.0,17,1,826.9519805908203,826.9510269165039,1205,1
62,quadbright,14.0,17,1,781.9581031799316,781.9571495056152,1418,1
63,quadbright,15.0,17,1,912.2886657714844,912.287712097168,1498,1
64,quadbright,16.0,17,1,915.1449203491211,915.1439666748047,1191,1
65,quadbright,17.0,23,1,723.8888740539551,723.8798141479492,1082,1
66,quadbright,18.0,17,1,1517.1918869018555,1517.1880722045898,1314,1
67,quadbright,19.0,17,1,780.2658081054688,780.2648544311523,1369,1
68,quadbright,20.0,17,1,691.4911270141602,691.4842128753662,847,1
69,quadbright,21.0,17,1,3299.17311668396,3299.1678714752197,1327,1
70,quadbright,22.0,17,1,979.194164276123,979.1932106018066,1437,1
71,quadbright,23.0,17,1,880.6006908416748,880.5997371673584,848,1
72,quadbright,24.0,17,1,878.8700103759766,878.8690567016602,1031,1
73,quadbright,25.0,17,1,1706.2010765075684,1706.200122833252,1497,1
74,quadbright,26.0,17,1,690.0248527526855,690.018892288208,1166,1
75,quadbright,27.0,17,1,1023.7870216369629,1023.784875869751,1161,1
76,quadbright,28.0,17,1,888.9420032501221,888.9369964599609,1478,1
77,quadbright,29.0,23,1,878.6749839782715,878.6730766296387,1241,1
78,quadbright,30.0,23,1,881.5500736236572,881.5491199493408,1331,1
79,quadbright,5.0,17,1,99.23195838928223,693.15505027771,1429,1
80,quadbright,6.0,17,1,99.11179542541504,693.7439441680908,1061,1
81,quadbright,7.0,17,1,99.24507141113281,592.3960208892822,913,1
82,quadbright,8.0,17,1,100.19898414611816,593.2989120483398,1098,1
83,quadbright,9.0,17,1,592.0183658599854,592.0162200927734,1378,1
84,quadbright,10.0,17,1,592.6101207733154,592.6079750061035,1255,1
85,quadbright,11.0,17,1,198.18806648254395,696.627140045166,808,1
86,quadbright,12.0,17,1,591.8490886688232,591.8419361114502,804,1
87,quadbright,13.0,17,1,593.0869579315186,593.080997467041,1101,1
88,quadbright,14.0,17,1,593.8019752502441,593.8000679016113,1377,1
89,quadbright,15.0,17,1,891.0160064697266,891.0150527954102,1434,1
90,quadbright,16.0,17,1,621.7689514160156,621.7639446258545,1131,1
91,quadbright,17.0,20,1,700.7060050964355,700.7007598876953,1116,1
92,quadbright,18.0,17,1,790.8270359039307,790.8248901367188,1208,1
93,quadbright,19.0,17,1,1176.4891147613525,1176.4881610870361,1209,1
94,quadbright,20.0,17,1,1682.530164718628,1682.528018951416,1419,1
95,quadbright,21.0,17,1,691.0321712493896,691.0269260406494,1134,1
96,quadbright,22.0,17,1,582.7910900115967,582.7901363372803,1430,1
97,quadbright,23.0,17,1,692.2018527984619,692.1987533569336,1317,1
98,quadbright,24.0,17,1,586.1639976501465,586.162805557251,1249,1
99,quadbright,25.0,17,1,592.9222106933594,592.9181575775146,1211,1
100,quadbright,26.0,17,1,593.0049419403076,593.0018424987793,1446,1
101,quadbright,27.0,17,1,690.8650398254395,690.8609867095947,973,1
102,quadbright,28.0,17,1,594.573974609375,594.5689678192139,1233,1
103,quadbright,29.0,20,1,1186.7702007293701,1186.7659091949463,1163,1
104,quadbright,30.0,20,0,1725.7962226867676,1725.7909774780273,1105,1
105,quadbright,5.0,14,1,198.63605499267578,683.9921474456787,1289,1
106,quadbright,6.0,14,1,196.67696952819824,789.9420261383057,1229,1
107,quadbright,7.0,14,1,197.65710830688477,605.9811115264893,1309,1
108,quadbright,8.0,14,1,592.7681922912598,592.7670001983643,1052,1
109,quadbright,9.0,14,1,196.5651512145996,680.9909343719482,825,1
110,quadbright,10.0,14,1,297.64819145202637,597.9681015014648,841,1
111,quadbright,11.0,14,0,496.4461326599121,496.4451789855957,932,1
112,quadbright,12.0,14,1,615.3461933135986,615.3450012207031,1497,1
113,quadbright,13.0,14,1,593.6720371246338,593.6710834503174,1429,1
114,quadbright,14.0,14,1,789.7679805755615,789.762020111084,1143,1
115,quadbright,15.0,14,1,702.0621299743652,702.0580768585205,984,1
116,quadbright,16.0,14,1,592.8051471710205,592.8020477294922,1204,1
117,quadbright,17.0,20,1,528.6240577697754,528.6200046539307,1300,1
118,quadbright,18.0,14,0,1516.7961120605469,1516.7930126190186,902,1
119,quadbright,19.0,14,1,1176.4512062072754,1176.4500141143799,1461,1
120,quadbright,20.0,14,1,624.8979568481445,624.8900890350342,906,1
121,quadbright,21.0,14,1,794.5499420166016,794.5468425750732,1459,1
122,quadbright,22.0,14,1,601.6061305999756,601.6020774841309,1329,1
123,quadbright,23.0,14,1,1019.4909572601318,1019.4869041442871,1236,1
124,quadbright,24.0,14,0,2220.928907394409,2220.925807952881,1017,1
125,quadbright,25.0,14,0,1520.608901977539,1520.606279373169,1477,1
126,quadbright,26.0,14,1,790.9021377563477,790.8990383148193,1372,1
127,quadbright,27.0,14,0,1594.21706199646,1594.2120552062988,871,1
128,quadbright,28.0,14,1,1092.1540260314941,1092.1499729156494,830,1
129,quadbright,29.0,20,1,1911.6768836975098,1911.6668701171875,963,1
130,quadbright,30.0,23,1,783.8168144226074,783.815860748291,1453,1
131,quadbright,5.0,14,1,98.77705574035645,592.6909446716309,1352,1
132,quadbright,6.0,14,1,98.50287437438965,494.25697326660156,945,1
133,quadbright,7.0,14,1,99.56812858581543,584.7270488739014,1190,1
134,quadbright,8.0,14,1,99.09391403198242,604.9871444702148,842,1
135,quadbright,9.0,14,1,99.02215003967285,493.7021732330322,1469,1
136,quadbright,10.0,14,1,593.7819480895996,593.7778949737549,1365,1
137,quadbright,11.0,17,1,481.8739891052246,481.8730354309082,1070,1
138,quadbright,12.0,14,1,901.4630317687988,901.4599323272705,936,1
139,quadbright,13.0,14,1,691.7529106140137,691.7498111724854,937,1
140,quadbright,14.0,14,1,702.7392387390137,702.7332782745361,1297,1
141,quadbright,15.0,14,1,793.3139801025391,793.3130264282227,1203,1
142,quadbright,16.0,14,1,682.1761131286621,682.1749210357666,973,1
143,quadbright,17.0,17,1,648.8399505615234,648.8392353057861,1440,1
144,quadbright,18.0,17,1,779.7250747680664,779.7250747680664,1495,1
145,quadbright,19.0,14,1,797.6009845733643,797.572135925293,1196,1
146,quadbright,20.0,14,1,625.4892349243164,625.4870891571045,1330,1
147,quadbright,21.0,14,1,822.2320079803467,822.2298622131348,1491,1
148,quadbright,22.0,14,0,1318.1450366973877,1318.1440830230713,1089,1
149,quadbright,23.0,14,0,3991.0571575164795,3991.0542964935303,1117,1
150,quadbright,24.0,17,1,714.716911315918,714.7159576416016,1194,1
151,quadbright,25.0,17,0,1010.7331275939941,1010.7321739196777,1199,1
152,quadbright,26.0,14,1,2376.2471675872803,2376.240015029907,1088,1
153,quadbright,27.0,17,1,1219.857931137085,1219.8548316955566,1032,1
154,quadbright,28.0,14,0,1220.5829620361328,1220.5781936645508,1265,1
155,quadbright,29.0,17,0,3003.359079360962,3003.351926803589,1430,1
156,quadbright,30.0,23,0,3896.1169719696045,3896.113872528076,1033,1
157,quadbright,5.0,11,1,207.95106887817383,798.6021041870117,1329,1
158,quadbright,6.0,11,1,98.62899780273438,591.9511318206787,1287,1
159,quadbright,7.0,11,1,594.0742492675781,594.0732955932617,1278,1
160,quadbright,8.0,11,1,99.44605827331543,692.9318904876709,1131,1
161,quadbright,9.0,11,0,1485.271692276001,1485.2707386016846,928,1
162,quadbright,10.0,11,1,594.0678119659424,594.0618515014648,1174,1
163,quadbright,11.0,17,1,1178.2879829406738,1178.2870292663574,1196,1
164,quadbright,12.0,11,1,1209.2158794403076,1209.2158794403076,1382,1
165,quadbright,13.0,11,1,593.6169624328613,593.6131477355957,1362,1
166,quadbright,14.0,11,1,792.7501201629639,792.7429676055908,1115,1
167,quadbright,15.0,11,1,1285.60209274292,1285.600185394287,823,1
168,quadbright,16.0,11,1,1208.2579135894775,1208.2569599151611,1269,1
169,quadbright,17.0,17,1,888.0879878997803,888.0810737609863,1102,1
170,quadbright,18.0,17,1,789.7350788116455,789.7329330444336,1079,1
171,quadbright,19.0,11,1,1085.6661796569824,1085.6623649597168,1224,1
172,quadbright,20.0,11,0,2012.4850273132324,2012.476921081543,1231,1
173,quadbright,21.0,11,1,1275.7837772369385,1275.782823562622,1353,1
174,quadbright,22.0,17,1,1010.6251239776611,1010.6239318847656,1348,1
175,quadbright,23.0,17,1,791.6858196258545,791.6829586029053,1195,1
176,quadbright,24.0,17,1,1936.2881183624268,1936.2869262695312,1050,1
177,quadbright,25.0,20,1,593.5838222503662,593.5778617858887,1190,1
178,quadbright,26.0,11,1,2010.8249187469482,2010.8187198638916,1369,1
179,quadbright,27.0,17,0,1275.0630378723145,1275.062084197998,1350,1
180,quadbright,28.0,17,0,1592.9539203643799,1592.952013015747,961,1
181,quadbright,29.0,20,0,2179.879903793335,2179.871082305908,1043,1
182,quadbright,30.0,24,1,692.7371025085449,692.7330493927002,1047,1
183,quadbright,5.0,11,1,102.31494903564453,598.1459617614746,1194,1
184,quadbright,6.0,11,1,99.19071197509766,493.2398796081543,1185,1
185,quadbright,7.0,11,1,98.79803657531738,593.5900211334229,989,1
186,quadbright,8.0,11,1,527.4019241333008,527.400016784668,1497,1
187,quadbright,9.0,14,0,98.79493713378906,593.4462547302246,1189,1
188,quadbright,10.0,11,1,714.1289710998535,714.1268253326416,1078,1
189,quadbright,11.0,15,1,681.6151142120361,681.6139221191406,1343,1
190,quadbright,12.0,11,1,494.37975883483887,494.3690299987793,1441,1
191,quadbright,13.0,11,1,505.60617446899414,505.6030750274658,1066,1
192,quadbright,14.0,11,1,714.0421867370605,714.0412330627441,1452,1
193,quadbright,15.0,11,1,724.5907783508301,724.5848178863525,1411,1
194,quadbright,16.0,11,0,823.5359191894531,823.5299587249756,843,1
195,quadbright,17.0,14,1,492.2680854797363,492.2642707824707,842,1
196,quadbright,18.0,15,1,492.6588535308838,492.65289306640625,977,1
197,quadbright,19.0,11,1,603.9760112762451,603.971004486084,1335,1
198,quadbright,20.0,14,1,593.9571857452393,593.9562320709229,1420,1
199,quadbright,21.0,11,1,496.20604515075684,496.20509147644043,1308,1
200,quadbright,22.0,17,1,592.3850536346436,592.383861541748,1398,1
201,quadbright,23.0,17,0,996.1302280426025,996.1259365081787,1033,1
202,quadbright,24.0,15,1,613.3160591125488,613.3151054382324,1420,1
203,quadbright,25.0,20,1,891.8871879577637,891.883134841919,901,1
204,quadbright,26.0,11,1,583.7612152099609,583.759069442749,1333,1
205,quadbright,27.0,18,0,780.0118923187256,780.0109386444092,1022,1
206,quadbright,28.0,20,0,1098.4148979187012,1098.4132289886475,832,1
207,quadbright,29.0,21,1,1613.8558387756348,1613.8548851013184,1461,1
208,quadbright,30.0,24,1,1088.4788036346436,1088.4718894958496,1408,1
209,quadbright,5.0,8,1,97.34916687011719,583.3761692047119,1005,1
210,quadbright,6.0,8,1,692.8670406341553,692.8660869598389,1447,1
211,quadbright,7.0,8,1,200.43587684631348,527.9519557952881,1097,1
212,quadbright,8.0,8,1,188.09199333190918,517.3740386962891,1194,1
213,quadbright,9.0,17,1,493.121862411499,493.1190013885498,1053,1
214,quadbright,10.0,8,1,791.9340133666992,791.9249534606934,1346,1
215,quadbright,11.0,15,1,104.42185401916504,599.5137691497803,1092,1
216,quadbright,12.0,8,1,1824.2831230163574,1824.280023574829,1436,1
217,quadbright,13.0,8,1,592.2613143920898,592.2582149505615,992,1
218,quadbright,14.0,8,1,790.4908657073975,790.4849052429199,1041,1
219,quadbright,15.0,8,1,1194.9188709259033,1194.9167251586914,1146,1
220,quadbright,16.0,14,1,494.185209274292,494.17805671691895,880,1
221,quadbright,17.0,14,1,493.0751323699951,493.070125579834,1139,1
222,quadbright,18.0,15,1,692.983865737915,692.9831504821777,1011,1
223,quadbright,19.0,8,1,1283.747911453247,1283.7409973144531,1359,1
224,quadbright,20.0,14,1,625.5106925964355,625.5018711090088,896,1
225,quadbright,21.0,8,0,1218.1408405303955,1218.1379795074463,1104,1
226,quadbright,22.0,15,0,1011.1920833587646,1011.1908912658691,1024,1
227,quadbright,23.0,18,1,592.1719074249268,592.1688079833984,1381,1
228,quadbright,24.0,15,1,987.4389171600342,987.4300956726074,978,1
229,quadbright,25.0,18,1,682.9073429107666,682.9061508178711,838,1
230,quadbright,26.0,8,0,2111.1841201782227,2111.1769676208496,1295,1
231,quadbright,27.0,20,1,2297.1129417419434,2297.111988067627,821,1
232,quadbright,28.0,23,0,1310.8670711517334,1310.8651638031006,911,1
233,quadbright,29.0,21,1,724.03883934021,724.0369319915771,971,1
234,quadbright,30.0,23,0,892.5659656524658,892.5588130950928,1467,1
235,quadbright,5.0,8,1,99.48015213012695,495.319128036499,1198,1
236,quadbright,6.0,8,1,99.23601150512695,592.8921699523926,921,1
237,quadbright,7.0,8,1,99.14016723632812,501.0340213775635,990,1
238,quadbright,8.0,8,1,398.3280658721924,703.5810947418213,926,1
239,quadbright,9.0,17,1,594.3119525909424,594.3090915679932,826,1
240,quadbright,10.0,8,1,715.2421474456787,715.2411937713623,902,1
241,quadbright,11.0,14,1,723.7548828125,723.743200302124,1127,1
242,quadbright,12.0,8,1,1022.9079723358154,1022.907018661499,1474,1
243,quadbright,13.0,8,1,690.7939910888672,690.7939910888672,1451,1
244,quadbright,14.0,8,1,2373.6319541931152,2373.626947402954,1389,1
245,quadbright,15.0,8,0,693.3600902557373,693.3481693267822,891,1
246,quadbright,16.0,14,1,1011.9509696960449,1011.9500160217285,1244,1
247,quadbright,17.0,11,0,1079.4110298156738,1079.4100761413574,987,1
248,quadbright,18.0,14,1,1277.8611183166504,1277.860164642334,1259,1
249,quadbright,19.0,8,1,1099.8461246490479,1099.843978881836,880,1
250,quadbright,20.0,12,0,891.6149139404297,891.6118144989014,936,1
251,quadbright,21.0,11,1,1119.3370819091797,1119.330883026123,1018,1
252,quadbright,22.0,17,1,726.5751361846924,726.5729904174805,1168,1
253,quadbright,23.0,18,0,812.5789165496826,812.5779628753662,1435,1
254,quadbright,24.0,14,1,593.5518741607666,593.5509204864502,1240,1
255,quadbright,25.0,18,0,2199.0013122558594,2199.000120162964,968,1
256,quadbright,26.0,11,1,725.801944732666,725.7990837097168,806,1
257,quadbright,27.0,20,1,723.120927810669,723.1180667877197,918,1
258,quadbright,28.0,26,1,626.4858245849609,626.4786720275879,1286,1
259,quadbright,29.0,20,1,623.8939762115479,623.8830089569092,1316,1
260,quadbright,30.0,24,1,712.785005569458,712.7838134765625,1142,1
261,quadbright,5.0,5,1,100.13794898986816,1078.5369873046875,1189,1
262,quadbright,6.0,5,1,98.91390800476074,900.9299278259277,868,1
263,quadbright,7.0,5,1,923.1691360473633,923.1650829315186,1313,1
264,quadbright,8.0,5,0,1516.5979862213135,1516.5948867797852,884,1
265,quadbright,9.0,15,1,592.7000045776367,592.6952362060547,976,1
266,quadbright,10.0,5,1,2168.897867202759,2168.8971519470215,1410,1
267,quadbright,11.0,14,1,682.1479797363281,682.1470260620117,1210,1
268,quadbright,12.0,5,0,1010.0700855255127,1010.0688934326172,1492,1
269,quadbright,13.0,5,1,1217.522144317627,1217.5211906433105,1143,1
270,quadbright,14.0,5,1,98.76394271850586,1295.4888343811035,1134,1
271,quadbright,15.0,11,1,1010.8721256256104,1010.871171951294,1270,1
272,quadbright,16.0,12,0,1285.3550910949707,1285.3498458862305,1008,1
273,quadbright,17.0,14,1,792.9649353027344,792.9601669311523,1210,1
274,quadbright,18.0,14,0,1409.3749523162842,1409.3739986419678,1019,1
275,quadbright,19.0,5,0,97.69415855407715,779.879093170166,1417,1
276,quadbright,20.0,14,1,702.6281356811523,702.625036239624,1162,1
277,quadbright,21.0,11,0,1406.3811302185059,1406.3811302185059,1313,1
278,quadbright,22.0,17,1,594.196081161499,594.1929817199707,1241,1
279,quadbright,23.0,19,0,1297.9891300201416,1297.983169555664,818,1
280,quadbright,24.0,14,1,978.1990051269531,978.1980514526367,1428,1
281,quadbright,25.0,20,1,890.93017578125,890.9261226654053,991,1
282,quadbright,26.0,11,1,3069.068193435669,3069.060802459717,1473,1
283,quadbright,27.0,19,1,726.1629104614258,726.1567115783691,1311,1
284,quadbright,29.0,20,1,823.214054107666,823.2109546661377,1000,1
285,quadbright,5.0,5,1,98.43778610229492,595.383882522583,855,1
286,quadbright,6.0,5,1,98.92988204956055,521.6879844665527,1437,1
287,quadbright,7.0,5,1,200.97923278808594,734.6091270446777,1021,1
288,quadbright,8.0,8,1,758.181095123291,758.1770420074463,977,1
289,quadbright,9.0,15,1,198.87304306030273,428.5850524902344,1442,1
290,quadbright,10.0,5,1,1184.6539974212646,1184.6530437469482,1214,1
291,quadbright,11.0,12,1,493.41893196105957,493.4108257293701,984,1
292,quadbright,12.0,8,1,879.6579837799072,879.6570301055908,923,1
293,quadbright,13.0,5,1,1076.6639709472656,1076.6630172729492,1197,1
294,quadbright,14.0,5,0,920.0069904327393,920.00412940979,1276,1
295,quadbright,15.0,11,1,594.0451622009277,594.0442085266113,973,1
296,quadbright,16.0,14,1,594.588041305542,594.5851802825928,1329,1
297,quadbright,17.0,14,1,591.8638706207275,591.8591022491455,877,1
298,quadbright,18.0,15,1,592.8897857666016,592.8859710693359,887,1
299,quadbright,19.0,8,1,1185.8670711517334,1185.863971710205,1064,1
300,quadbright,20.0,14,1,605.2148342132568,605.2122116088867,1456,1
301,quadbright,21.0,12,1,822.699785232544,822.6947784423828,1197,1
302,quadbright,22.0,16,1,725.1169681549072,725.1148223876953,834,1
303,quadbright,23.0,20,1,495.2230453491211,495.21803855895996,1040,1
304,quadbright,24.0,12,1,594.1338539123535,594.1331386566162,1215,1
305,quadbright,25.0,20,1,692.9991245269775,692.9929256439209,886,1
306,quadbright,26.0,9,1,789.6549701690674,789.6509170532227,1457,1
307,quadbright,27.0,19,1,499.67408180236816,499.67217445373535,1428,1
308,quadbright,29.0,18,1,1287.4629497528076,1287.4610424041748,1492,1
309,quadbright,5.0,2,0,1418.877124786377,1418.8761711120605,893,1
310,quadbright,6.0,2,1,2504.8818588256836,2504.879951477051,890,1
311,quadbright,7.0,2,1,2510.3421211242676,2510.3368759155273,1034,1
312,quadbright,8.0,8,1,99.02381896972656,692.5137042999268,1065,1
313,quadbright,9.0,14,1,495.23091316223145,495.2280521392822,1131,1
314,quadbright,10.0,2,0,100.30317306518555,1684.4730377197266,1429,1
315,quadbright,11.0,12,1,833.7669372558594,833.763837814331,1315,1
316,quadbright,12.0,8,1,199.22876358032227,693.1016445159912,1175,1
317,quadbright,13.0,2,1,898.123025894165,898.1199264526367,1100,1
318,quadbright,14.0,8,1,696.8779563903809,696.8739032745361,1171,1
319,quadbright,15.0,9,1,592.9830074310303,592.9820537567139,1134,1
320,quadbright,16.0,14,1,735.2697849273682,735.267162322998,1230,1
321,quadbright,17.0,12,1,734.7049713134766,734.6909046173096,1239,1
322,quadbright,18.0,15,1,627.4561882019043,627.4549961090088,1244,1
323,quadbright,19.0,8,0,1023.9579677581787,1023.9541530609131,891,1
324,quadbright,20.0,13,1,493.668794631958,493.66283416748047,1476,1
325,quadbright,21.0,12,1,495.26500701904297,495.26214599609375,1439,1
326,quadbright,22.0,16,1,494.58980560302734,494.5869445800781,1466,1
327,quadbright,23.0,20,1,593.3339595794678,593.3308601379395,1258,1
328,quadbright,24.0,12,1,594.641923904419,594.6359634399414,1129,1
329,quadbright,25.0,19,1,498.5840320587158,498.582124710083,887,1
330,quadbright,26.0,9,1,1295.3200340270996,1295.316219329834,1026,1
331,quadbright,27.0,18,1,791.003942489624,791.0013198852539,1196,1
332,quadbright,29.0,18,0,889.8251056671143,889.8220062255859,873,1
333,quadbright,5.0,5,0,195.72710990905762,1484.7187995910645,1108,1
334,quadbright,6.0,2,1,100.76379776000977,1109.2028617858887,960,1
335,quadbright,7.0,2,0,98.04296493530273,1407.2308540344238,1052,1
336,quadbright,8.0,6,1,1276.8540382385254,1276.853084564209,999,1
337,quadbright,9.0,14,1,486.1288070678711,486.1278533935547,1053,1
338,quadbright,10.0,5,0,713.1092548370361,713.1071090698242,1458,1
339,quadbright,11.0,11,1,498.0778694152832,498.07214736938477,979,1
340,quadbright,12.0,6,1,593.4679508209229,593.4638977050781,1366,1
341,quadbright,13.0,2,0,824.6300220489502,824.6293067932129,1400,1
342,quadbright,14.0,8,1,889.8499011993408,889.8468017578125,1082,1
343,quadbright,15.0,9,1,1416.382074356079,1416.3780212402344,1379,1
344,quadbright,16.0,13,1,917.8450107574463,917.8431034088135,812,1
345,quadbright,17.0,12,1,518.9962387084961,518.9940929412842,1405,1
346,quadbright,18.0,14,1,593.7340259552002,593.7321186065674,1461,1
347,quadbright,19.0,9,1,901.054859161377,901.0498523712158,1492,1
348,quadbright,20.0,13,1,787.7767086029053,787.7728939056396,1152,1
349,quadbright,21.0,11,0,900.6469249725342,900.6409645080566,1408,1
350,quadbright,22.0,15,1,625.8208751678467,625.8201599121094,1090,1
351,quadbright,23.0,19,1,524.3871212005615,524.3840217590332,898,1
352,quadbright,24.0,11,0,792.0639514923096,792.0618057250977,1175,1
353,quadbright,25.0,19,1,702.5330066680908,702.5301456451416,963,1
354,quadbright,26.0,8,0,889.941930770874,889.9321556091309,916,1
355,quadbright,27.0,18,1,692.903995513916,692.8889751434326,1034,1
356,quadbright,29.0,20,1,624.4699954986572,624.4649887084961,1004,1
357,quadbright,5.0,8,1,493.5879707336426,493.58391761779785,1038,1
358,quadbright,6.0,1,1,198.46510887145996,2409.123182296753,836,1
359,quadbright,7.0,5,1,99.6389389038086,987.4560832977295,1067,1
360,quadbright,8.0,6,1,131.148099899292,822.4992752075195,851,1
361,quadbright,9.0,12,1,494.88306045532227,494.88306045532227,1487,1
362,quadbright,10.0,8,1,191.10488891601562,1012.7737522125244,871,1
363,quadbright,11.0,11,1,615.3600215911865,615.3590679168701,810,1
364,quadbright,12.0,6,1,1216.7341709136963,1216.728925704956,1195,1
365,quadbright,13.0,5,0,1092.8730964660645,1092.8668975830078,935,1
366,quadbright,14.0,6,1,1077.0878791809082,1077.0869255065918,1064,1
367,quadbright,15.0,8,1,1098.968744277954,1098.9649295806885,1426,1
368,quadbright,16.0,13,1,790.8401489257812,790.834903717041,1456,1
369,quadbright,17.0,11,0,703.7639617919922,703.761100769043,1312,1
370,quadbright,18.0,14,1,988.800048828125,988.7950420379639,867,1
371,quadbright,19.0,9,1,890.3579711914062,890.3570175170898,1201,1
372,quadbright,20.0,12,1,593.9691066741943,593.9679145812988,1323,1
373,quadbright,21.0,12,1,594.0690040588379,594.0659046173096,1272,1
374,quadbright,22.0,15,1,596.1518287658691,596.1458683013916,1022,1
375,quadbright,23.0,19,1,524.3902206420898,524.3861675262451,1472,1
376,quadbright,24.0,12,1,885.6039047241211,885.6029510498047,876,1
377,quadbright,25.0,18,0,890.5110359191895,890.5041217803955,1051,1
378,quadbright,26.0,9,1,891.3140296936035,891.3118839263916,1095,1
379,quadbright,27.0,17,1,703.0918598175049,703.0878067016602,1001,1
380,quadbright,29.0,20,0,495.1760768890381,495.1739311218262,1137,1
