trial,condition,eccentricity,magnitude,correct,srt_ms,keyboard_rt_ms,pre_change_ms,valid
1,control,5.0,20,1,198.08697700500488,495.1150417327881,1395,1
2,control,6.0,20,1,394.8960304260254,394.8931694030762,1497,1
3,control,7.0,20,1,524.3818759918213,524.3780612945557,1336,1
4,control,8.0,20,1,198.134183883667,526.2022018432617,1277,0
5,control,8.0,20,1,482.759952545166,482.7589988708496,1322,1
6,control,9.0,20,1,493.1328296661377,493.1299686431885,988,1
7,control,10.0,20,1,491.9757843017578,491.9710159301758,1488,1
8,control,11.0,20,1,494.68207359313965,494.6720600128174,1495,1
9,control,12.0,20,1,393.97192001342773,393.9692974090576,949,1
10,control,13.0,20,1,582.7219486236572,582.7200412750244,908,1
11,control,14.0,20,1,482.5608730316162,482.5599193572998,1325,1
12,control,15.0,20,1,394.2890167236328,394.2859172821045,1270,1
13,control,16.0,20,1,485.20398139953613,485.2030277252197,1329,1
14,control,17.0,20,1,593.4908390045166,593.4860706329346,1457,0
15,control,17.0,20,1,497.09320068359375,497.089147567749,1367,1
16,control,18.0,20,1,494.76099014282227,494.76099014282227,954,1
17,control,19.0,20,1,602.8647422790527,602.8609275817871,947,1
18,control,20.0,20,1,525.8979797363281,525.8958339691162,820,1
19,control,21.0,20,1,494.6119785308838,494.610071182251,1297,1
20,control,22.0,20,1,494.28319931030273,494.2820072174072,978,1
21,control,23.0,20,1,494.51398849487305,494.51279640197754,1012,1
22,control,24.0,20,1,395.57504653930664,395.5719470977783,1486,1
23,control,25.0,20,1,526.1638164520264,526.1621475219727,931,1
24,control,26.0,20,1,427.0601272583008,427.05798149108887,933,1
25,control,27.0,20,1,505.43212890625,505.4290294647217,1351,1
26,control,28.0,20,1,592.2729969024658,592.2689437866211,1112,1
27,control,29.0,20,1,583.0998420715332,583.0991268157959,1144,1
28,control,30.0,20,1,494.8761463165283,494.8718547821045,1021,1
29,control,5.0,20,0,100.78215599060059,386.45195960998535,1170,1
30,control,6.0,20,1,198.32611083984375,494.4009780883789,1002,1
31,control,7.0,20,1,194.65279579162598,583.9827060699463,1019,1
32,control,8.0,20,1,496.0649013519287,496.0629940032959,803,1
33,control,9.0,20,1,591.9721126556396,591.9649600982666,1035,1
34,control,10.0,20,1,625.3607273101807,625.3576278686523,1316,1
35,control,11.0,20,1,527.4403095245361,527.4372100830078,1157,1
36,control,12.0,20,1,624.1910457611084,624.1860389709473,1122,1
37,control,13.0,20,1,495.4369068145752,495.4361915588379,855,1
38,control,14.0,20,1,894.575834274292,894.5748805999756,997,1
39,control,15.0,20,1,492.2521114349365,492.2490119934082,970,1
40,control,16.0,20,1,493.3018684387207,493.2971000671387,904,1
41,control,17.0,20,1,486.0830307006836,486.0818386077881,1134,1
42,control,18.0,20,1,496.34790420532227,496.34695053100586,973,1
43,control,19.0,20,1,489.72535133361816,489.72010612487793,1184,1
44,control,20.0,20,1,493.06201934814453,493.0579662322998,1500,1
45,control,21.0,20,1,1087.3706340789795,1087.3677730560303,1062,1
46,control,22.0,20,1,383.29505920410156,383.29410552978516,1130,1
47,control,23.0,20,1,395.7030773162842,395.69902420043945,1042,1
48,control,24.0,20,1,493.35789680480957,493.35503578186035,1327,1
49,control,25.0,20,1,392.7938938140869,392.7891254425049,1087,1
50,control,26.0,20,1,395.9920406341553,395.99108695983887,1390,1
51,control,27.0,20,1,1286.574125289917,1286.5722179412842,1113,1
52,control,28.0,20,1,395.0479030609131,395.04480361938477,1168,1
53,control,29.0,20,1,495.21589279174805,495.21493911743164,823,1
54,control,30.0,20,1,594.9540138244629,594.9528217315674,1091,1
55,control,5.0,23,1,100.32105445861816,991.7771816253662,1415,1
56,control,6.0,17,1,97.47195243835449,494.1859245300293,1391,1
57,control,7.0,17,1,198.16279411315918,596.7569351196289,1050,1
58,control,8.0,17,1,101.24087333679199,894.0467834472656,1364,1
59,control,9.0,17,1,197.47185707092285,494.05574798583984,1305,1
60,control,10.0,17,1,886.7321014404297,886.7309093475342,1362,1
61,control,11.0,17,1,493.80993843078613,493.8068389892578,1072,1
62,control,12.0,17,1,889.153003692627,889.1501426696777,832,1
63,control,13.0,17,1,387.40992546081543,485.6228828430176,1265,1
64,control,14.0,17,1,494.8868751525879,494.88306045532227,892,1
65,control,15.0,17,1,497.55191802978516,497.5459575653076,1266,1
66,control,16.0,17,1,505.5060386657715,505.50293922424316,1408,1
67,control,17.0,17,1,596.3761806488037,596.3740348815918,1226,1
68,control,18.0,17,0,494.1370487213135,494.1260814666748,1446,1
69,control,19.0,17,1,608.5848808288574,608.5820198059082,1294,1
70,control,20.0,17,1,492.2647476196289,492.2630786895752,953,1
71,control,21.0,17,1,496.94108963012695,496.94013595581055,904,1
72,control,22.0,17,1,398.4417915344238,398.4389305114746,1208,1
73,control,23.0,17,1,495.1512813568115,495.1491355895996,1294,1
74,control,24.0,17,1,493.59989166259766,493.59703063964844,1208,1
75,control,25.0,17,1,492.2950267791748,492.28906631469727,1135,1
76,control,26.0,17,1,625.363826751709,625.3607273101807,1094,1
77,control,27.0,17,1,712.608814239502,712.6069068908691,1376,1
78,control,28.0,17,1,424.6549606323242,424.6487617492676,1172,1
79,control,29.0,17,1,515.2261257171631,515.2251720428467,1231,1
80,control,30.0,17,1,425.3668785095215,425.3649711608887,1264,1
81,control,5.0,23,1,98.34599494934082,1021.6579437255859,1076,1
82,control,6.0,17,1,100.51202774047852,403.6440849304199,1452,1
83,control,7.0,17,1,492.9471015930176,492.94519424438477,850,1
84,control,8.0,17,1,99.3342399597168,1023.9181518554688,1095,1
85,control,9.0,17,1,484.285831451416,484.2848777770996,947,1
86,control,10.0,17,1,485.4578971862793,485.4569435119629,982,1
87,control,11.0,17,1,397.2170352935791,397.2139358520508,1264,1
88,control,12.0,17,1,815.234899520874,815.2339458465576,929,1
89,control,13.0,17,1,515.639066696167,515.6381130218506,1201,0
90,control,13.0,17,1,486.55104637145996,486.55009269714355,1243,1
91,control,14.0,17,1,399.2776870727539,399.2748260498047,1307,1
92,control,15.0,17,1,691.5719509124756,691.5702819824219,1117,1
93,control,16.0,17,1,625.5123615264893,625.5102157592773,1035,1
94,control,17.0,17,1,495.0599670410156,495.0549602508545,1353,1
95,control,18.0,20,1,980.7779788970947,980.7770252227783,1235,1
96,control,19.0,17,1,878.9167404174805,878.9157867431641,884,1
97,control,20.0,17,1,492.7709102630615,492.7678108215332,944,1
98,control,21.0,17,1,890.0101184844971,890.0070190429688,909,1
99,control,22.0,17,1,889.0330791473389,889.0290260314941,1009,1
100,control,23.0,17,1,3192.035675048828,3192.0347213745117,877,1
101,control,24.0,17,1,493.83997917175293,493.8368797302246,1030,1
102,control,25.0,17,1,493.6981201171875,493.69215965270996,1047,1
103,control,26.0,17,1,582.6752185821533,582.6742649078369,899,1
104,control,27.0,17,1,594.3858623504639,594.3858623504639,935,1
105,control,28.0,17,1,988.7969493865967,988.793134689331,1486,1
106,control,29.0,17,1,493.0098056793213,492.9988384246826,1252,1
107,control,30.0,17,1,890.8600807189941,890.8588886260986,1154,1
108,control,5.0,21,1,99.38907623291016,495.55420875549316,1186,1
109,control,6.0,14,1,98.31976890563965,494.03905868530273,814,1
110,control,7.0,14,1,197.9081630706787,582.6530456542969,973,1
111,control,8.0,14,1,199.10001754760742,593.7371253967285,1301,1
112,control,9.0,14,1,394.8490619659424,394.84500885009766,1452,1
113,control,10.0,14,1,394.5729732513428,394.5660591125488,930,1
114,control,11.0,14,1,597.1062183380127,597.1031188964844,1322,1
115,control,12.0,14,1,494.51327323913574,494.5080280303955,980,1
116,control,13.0,14,1,197.0970630645752,890.6991481781006,926,1
117,control,14.0,14,1,495.61309814453125,495.61190605163574,1183,1
118,control,15.0,14,1,592.667818069458,592.6609039306641,1086,1
119,control,16.0,14,1,504.9171447753906,504.9121379852295,1178,1
120,control,17.0,14,1,692.5451755523682,692.5430297851562,1069,1
121,control,18.0,20,1,592.292070388794,592.2870635986328,850,1
122,control,19.0,14,1,525.1200199127197,525.1190662384033,1196,1
123,control,20.0,14,1,624.7208118438721,624.7138977050781,1041,1
124,control,21.0,14,1,495.1193332672119,495.1140880584717,997,1
125,control,22.0,14,1,724.0099906921387,724.008321762085,1434,1
126,control,23.0,14,1,494.4167137145996,494.4140911102295,1169,1
127,control,24.0,14,1,582.6270580291748,582.6261043548584,1085,1
128,control,25.0,14,1,615.3857707977295,615.3848171234131,1391,1
129,control,26.0,14,0,890.6991481781006,890.6922340393066,823,1
130,control,27.0,14,1,486.1741065979004,486.1729145050049,906,1
131,control,28.0,14,1,491.8708801269531,491.8668270111084,1413,1
132,control,29.0,14,1,1087.9237651824951,1087.920904159546,1001,0
133,control,29.0,14,1,526.453971862793,526.4508724212646,1397,1
134,control,30.0,14,0,627.7444362640381,627.7370452880859,810,1
135,control,5.0,21,1,100.74305534362793,328.4881114959717,1241,1
136,control,6.0,14,1,98.90007972717285,934.0319633483887,1040,0
137,control,6.0,14,1,504.986047744751,504.98199462890625,818,1
138,control,7.0,14,1,98.29401969909668,394.7603702545166,1032,1
139,control,8.0,14,1,96.32301330566406,392.7631378173828,945,1
140,control,9.0,14,1,197.77297973632812,905.6413173675537,1352,1
141,control,10.0,14,1,594.210147857666,594.2070484161377,1483,1
142,control,11.0,14,1,492.9180145263672,492.91396141052246,1447,1
143,control,12.0,14,1,584.4252109527588,584.4242572784424,808,1
144,control,13.0,14,1,483.5667610168457,483.5660457611084,1379,1
145,control,14.0,14,1,594.7079658508301,594.7048664093018,1164,1
146,control,15.0,14,1,483.14499855041504,483.14404487609863,1254,1
147,control,16.0,14,1,604.4690608978271,604.4661998748779,987,1
148,control,17.0,14,1,596.8940258026123,596.8930721282959,836,1
149,control,18.0,18,1,494.4179058074951,494.4150447845459,854,1
150,control,19.0,14,1,429.3689727783203,429.3670654296875,1035,1
151,control,20.0,14,1,396.46077156066895,396.4517116546631,1349,1
152,control,21.0,14,1,497.2958564758301,497.29394912719727,866,1
153,control,22.0,14,1,394.5310115814209,394.5200443267822,1319,1
154,control,23.0,14,1,395.5531120300293,395.5512046813965,1065,1
155,control,24.0,14,1,684.6029758453369,684.6020221710205,1447,1
156,control,25.0,14,1,505.36298751831055,505.3591728210449,1322,1
157,control,26.0,17,1,394.4978713989258,394.49405670166016,1470,1
158,control,27.0,14,1,793.4677600860596,793.4668064117432,1100,1
159,control,28.0,14,1,493.6540126800537,493.649959564209,1264,1
160,control,29.0,14,1,495.0718879699707,495.0709342956543,1467,1
161,control,30.0,17,1,592.5109386444092,592.5078392028809,1130,1
162,control,5.0,20,1,197.54314422607422,494.25625801086426,1026,1
163,control,6.0,11,1,99.23195838928223,495.4559803009033,941,1
164,control,7.0,11,1,98.84285926818848,493.5297966003418,967,1
165,control,8.0,11,1,593.7731266021729,593.7721729278564,1228,1
166,control,9.0,11,1,394.98114585876465,394.9742317199707,1056,1
167,control,10.0,11,1,396.63100242614746,396.62885665893555,1052,1
168,control,11.0,11,1,614.4146919250488,614.4137382507324,801,1
169,control,12.0,11,1,1027.082920074463,1027.0798206329346,1446,1
170,control,13.0,11,1,426.0830879211426,426.07784271240234,1047,1
171,control,14.0,11,1,529.5708179473877,529.5660495758057,1385,1
172,control,15.0,11,1,493.18718910217285,493.1800365447998,1411,1
173,control,16.0,11,1,485.96715927124023,485.9650135040283,1374,1
174,control,17.0,11,1,1019.9089050292969,1019.9060440063477,914,1
175,control,18.0,18,1,625.34499168396,625.3409385681152,1271,1
176,control,19.0,11,1,482.3453426361084,482.344388961792,1356,1
177,control,20.0,11,1,427.1368980407715,427.1349906921387,935,1
178,control,21.0,11,1,523.4558582305908,523.4477519989014,1377,1
179,control,22.0,11,1,496.51098251342773,496.5059757232666,964,1
180,control,23.0,11,1,483.2959175109863,483.295202255249,1220,1
181,control,24.0,11,1,503.9858818054199,503.97801399230957,1440,1
182,control,25.0,11,1,491.20306968688965,491.1990165710449,1003,1
183,control,26.0,17,1,597.7411270141602,597.7373123168945,1147,1
184,control,27.0,11,1,595.6399440765381,595.6289768218994,1046,1
185,control,28.0,11,1,501.1940002441406,501.1923313140869,818,1
186,control,29.0,11,1,592.1757221221924,592.1726226806641,1439,1
187,control,30.0,17,1,978.7001609802246,978.6989688873291,1009,1
188,control,5.0,20,1,130.94091415405273,328.1698226928711,981,1
189,control,6.0,11,1,99.14588928222656,496.6599941253662,878,1
190,control,7.0,11,1,385.1041793823242,484.04717445373535,1451,1
191,control,8.0,11,1,495.9449768066406,495.9421157836914,973,1
192,control,9.0,11,1,502.4540424346924,502.45118141174316,1266,1
193,control,10.0,11,1,493.945837020874,493.9429759979248,1398,1
194,control,11.0,11,1,586.4129066467285,586.4119529724121,1188,1
195,control,12.0,11,1,594.4311618804932,594.4299697875977,1401,1
196,control,13.0,11,1,1022.3507881164551,1022.3498344421387,1308,1
197,control,14.0,11,1,593.6439037322998,593.641996383667,898,1
198,control,15.0,11,1,496.85096740722656,496.85001373291016,813,1
199,control,16.0,11,1,494.16589736938477,494.16399002075195,885,1
200,control,17.0,11,1,492.39611625671387,492.3889636993408,1389,1
201,control,18.0,17,1,505.3250789642334,505.31983375549316,1178,1
202,control,19.0,11,0,594.1030979156494,594.1009521484375,904,1
203,control,20.0,11,1,482.7289581298828,482.7282428741455,1430,1
204,control,21.0,11,1,592.7639007568359,592.7598476409912,1282,1
205,control,22.0,11,1,494.21119689941406,494.20905113220215,809,1
206,control,23.0,11,1,493.3340549468994,493.32690238952637,909,1
207,control,24.0,11,1,493.8058853149414,493.8039779663086,1405,1
208,control,25.0,11,1,493.1051731109619,493.1020736694336,882,1
209,control,26.0,15,1,2274.949073791504,2274.94215965271,1240,0
210,control,26.0,15,1,692.3410892486572,692.3320293426514,1399,0
211,control,26.0,15,1,491.9910430908203,491.9888973236084,1070,1
212,control,27.0,11,1,593.2152271270752,593.2111740112305,1238,1
213,control,28.0,11,1,483.8438034057617,483.8428497314453,1263,0
214,control,28.0,11,1,693.0050849914551,692.9988861083984,935,1
215,control,29.0,11,1,496.00696563720703,496.0060119628906,1311,1
216,control,30.0,15,1,525.702953338623,525.698184967041,917,1
217,control,5.0,18,1,197.86310195922852,594.0778255462646,914,0
218,control,5.0,18,0,199.48697090148926,396.99697494506836,842,1
219,control,6.0,8,1,201.69496536254883,584.9788188934326,884,1
220,control,7.0,8,1,594.228982925415,594.2280292510986,1311,1
221,control,8.0,8,1,495.88704109191895,495.8770275115967,1029,1
222,control,9.0,8,1,95.12114524841309,393.0232524871826,1034,1
223,control,10.0,8,1,396.1360454559326,396.1348533630371,1402,1
224,control,11.0,8,1,1098.1380939483643,1098.1309413909912,1456,1
225,control,12.0,8,1,100.07905960083008,494.20714378356934,1045,1
226,control,13.0,8,1,504.5011043548584,504.49275970458984,1198,1
227,control,14.0,8,0,889.5139694213867,889.5111083984375,1491,1
228,control,15.0,8,1,493.73483657836914,493.7317371368408,1268,1
229,control,16.0,8,1,505.3386688232422,505.33080101013184,1333,1
230,control,17.0,8,1,394.3660259246826,394.3629264831543,1445,1
231,control,18.0,17,1,594.4051742553711,594.3999290466309,1081,1
232,control,19.0,14,1,824.7528076171875,824.7509002685547,972,1
233,control,20.0,8,1,593.7087535858154,593.707799911499,1005,0
234,control,20.0,8,1,494.56787109375,494.5659637451172,1028,1
235,control,21.0,8,1,493.5038089752197,493.5030937194824,1172,1
236,control,22.0,8,1,493.76511573791504,493.7591552734375,1017,1
237,control,23.0,8,1,396.0089683532715,396.0080146789551,1401,1
238,control,24.0,8,0,793.8249111175537,793.8210964202881,1196,1
239,control,25.0,8,1,593.5571193695068,593.5511589050293,825,1
240,control,26.0,15,1,493.6509132385254,493.6399459838867,1387,1
241,control,27.0,8,1,1297.0638275146484,1297.0612049102783,1199,1
242,control,28.0,8,1,623.6488819122314,623.6400604248047,1426,1
243,control,29.0,8,0,492.5098419189453,492.5081729888916,1039,1
244,control,30.0,15,1,690.026044845581,690.0238990783691,834,1
245,control,5.0,20,1,101.70316696166992,493.57104301452637,915,1
246,control,6.0,8,1,97.8708267211914,394.4721221923828,1455,1
247,control,7.0,8,1,297.09696769714355,593.6319828033447,1380,1
248,control,8.0,8,1,97.88703918457031,394.4220542907715,1069,1
249,control,9.0,8,1,89.56599235534668,386.3191604614258,1235,1
250,control,10.0,8,1,592.0438766479492,592.0419692993164,1347,1
251,control,11.0,8,1,98.66714477539062,493.47996711730957,816,0
252,control,11.0,8,1,625.1199245452881,625.1168251037598,1021,1
253,control,12.0,8,1,99.9908447265625,495.0106143951416,952,1
254,control,13.0,8,1,196.63000106811523,494.31395530700684,926,1
255,control,14.0,11,0,99.08199310302734,899.5718955993652,1321,1
256,control,15.0,8,0,495.12314796447754,495.12219429016113,1296,1
257,control,16.0,8,1,626.3089179992676,626.2989044189453,823,1
258,control,17.0,8,0,624.3400573730469,624.3331432342529,1071,1
259,control,18.0,15,0,525.9578227996826,525.9530544281006,1297,1
260,control,19.0,14,1,527.1270275115967,527.1270275115967,1498,1
261,control,20.0,8,1,527.2660255432129,527.2629261016846,892,1
262,control,21.0,8,1,616.7449951171875,616.7440414428711,1227,1
263,control,22.0,8,1,489.8643493652344,489.86315727233887,1395,1
264,control,23.0,8,1,593.9309597015381,593.9271450042725,1035,1
265,control,24.0,11,0,691.349983215332,691.3459300994873,1403,1
266,control,25.0,8,1,395.0653076171875,395.0631618499756,1343,1
267,control,26.0,14,1,494.8561191558838,494.8551654815674,970,1
268,control,27.0,8,0,502.1829605102539,502.1791458129883,939,1
269,control,28.0,8,0,593.7111377716064,593.7058925628662,1176,1
270,control,29.0,11,0,592.0300483703613,592.0240879058838,1409,1
271,control,30.0,14,1,624.5932579040527,624.5870590209961,836,1
272,control,5.0,20,1,200.3319263458252,694.4601535797119,1318,1
273,control,6.0,5,1,98.5720157623291,395.4188823699951,1054,1
274,control,7.0,5,1,100.34680366516113,395.6429958343506,1417,1
275,control,8.0,5,1,484.9207401275635,484.9200248718262,1087,1
276,control,9.0,5,1,691.1087036132812,691.1067962646484,1365,1
277,control,10.0,5,1,618.1161403656006,618.1151866912842,1045,1
278,control,11.0,5,1,428.5142421722412,528.3222198486328,1242,1
279,control,12.0,5,1,625.1800060272217,625.1788139343262,1242,1
280,control,13.0,5,1,494.2789077758789,494.2750930786133,1379,1
281,control,14.0,14,1,405.0121307373047,405.00783920288086,1077,1
282,control,15.0,11,1,584.1748714447021,584.1727256774902,1344,1
283,control,16.0,5,0,826.469898223877,826.4620304107666,1421,1
284,control,17.0,11,1,395.08914947509766,395.0839042663574,1174,1
285,control,18.0,17,1,820.4412460327148,820.4381465911865,877,1
286,control,19.0,12,1,494.1699504852295,494.1689968109131,1042,1
287,control,20.0,5,0,593.2910442352295,593.2869911193848,894,1
288,control,21.0,5,1,491.0860061645508,491.08314514160156,818,1
289,control,22.0,5,1,594.1979885101318,594.1967964172363,907,1
290,control,23.0,5,1,691.1571025848389,691.1530494689941,1139,1
291,control,24.0,14,1,493.84593963623047,493.84117126464844,1211,1
292,control,25.0,5,1,698.7521648406982,698.7452507019043,818,1
293,control,26.0,14,1,494.73118782043457,494.72713470458984,1218,1
294,control,27.0,11,1,494.89307403564453,494.8840141296387,1140,1
295,control,28.0,11,1,497.8671073913574,497.8640079498291,923,1
296,control,29.0,14,1,493.41273307800293,493.4117794036865,1477,1
297,control,30.0,14,1,494.7168827056885,494.7090148925781,1373,1
298,control,5.0,19,1,99.6243953704834,494.7090148925781,1312,1
299,control,6.0,5,1,198.79460334777832,583.4996700286865,1429,0
300,control,6.0,5,1,97.3668098449707,692.5079822540283,866,1
301,control,7.0,5,1,100.27694702148438,584.8639011383057,1477,1
302,control,8.0,5,1,98.82688522338867,493.2987689971924,1183,1
303,control,9.0,5,0,97.24283218383789,591.6898250579834,1025,1
304,control,10.0,5,1,682.1720600128174,682.171106338501,1177,1
305,control,11.0,5,0,694.260835647583,694.2551136016846,1067,1
306,control,12.0,5,1,393.9030170440674,393.89705657958984,948,1
307,control,13.0,5,1,494.11606788635254,494.1079616546631,1491,1
308,control,14.0,14,1,504.25004959106445,504.24695014953613,932,1
309,control,15.0,11,1,1094.0980911254883,1094.0961837768555,996,1
310,control,16.0,8,1,492.45405197143555,492.4490451812744,853,1
311,control,17.0,11,1,494.84896659851074,494.84777450561523,1335,1
312,control,18.0,17,1,396.0912227630615,396.08216285705566,845,0
313,control,18.0,17,1,497.5101947784424,497.509241104126,1013,1
314,control,19.0,12,1,494.6608543395996,494.6601390838623,1261,1
315,control,20.0,8,1,801.6202449798584,801.6161918640137,1257,1
316,control,21.0,5,0,591.3920402526855,591.3889408111572,1307,1
317,control,22.0,5,1,397.3729610443115,397.367000579834,1104,1
318,control,23.0,5,0,494.86589431762695,494.86374855041504,1274,1
319,control,24.0,14,0,691.8489933013916,691.8468475341797,814,1
320,control,25.0,5,0,634.9949836730957,634.9921226501465,1145,1
321,control,26.0,12,1,417.0241355895996,417.0241355895996,1436,1
322,control,27.0,11,1,524.2371559143066,524.2328643798828,1081,1
323,control,28.0,11,0,724.0502834320068,724.0440845489502,1497,1
324,control,29.0,14,1,527.5881290435791,527.5819301605225,1068,1
325,control,30.0,12,1,664.4179821014404,664.4158363342285,1386,0
326,control,30.0,12,1,714.4420146942139,714.4410610198975,1425,0
327,control,30.0,12,0,691.7262077331543,691.7221546173096,1066,1
328,control,5.0,19,1,101.33910179138184,497.39599227905273,1481,1
329,control,6.0,2,0,703.0911445617676,703.0880451202393,1499,1
330,control,7.0,2,1,198.87208938598633,592.5540924072266,1114,0
331,control,7.0,2,0,198.1968879699707,602.9589176177979,1249,1
332,control,8.0,2,1,100.07500648498535,692.3952102661133,1031,1
333,control,9.0,8,1,484.88330841064453,484.882116317749,1007,1
334,control,10.0,2,1,100.26288032531738,498.46696853637695,1128,1
335,control,11.0,8,1,503.126859664917,503.1251907348633,1443,1
336,control,12.0,2,0,793.4436798095703,793.4427261352539,1282,1
337,control,13.0,2,0,437.67595291137695,437.6702308654785,1122,1
338,control,14.0,12,1,396.2399959564209,396.2380886077881,871,1
339,control,15.0,9,1,681.751012802124,681.7498207092285,995,1
340,control,16.0,8,1,196.0599422454834,493.7291145324707,997,0
341,control,16.0,8,1,591.0849571228027,591.0820960998535,809,1
342,control,17.0,9,1,889.6126747131348,889.6088600158691,1091,1
343,control,18.0,16,1,593.3599472045898,593.3570861816406,1140,1
344,control,19.0,11,1,394.7031497955322,394.7010040283203,1289,1
345,control,20.0,8,1,600.2647876739502,600.2638339996338,963,1
346,control,21.0,8,1,493.8931465148926,493.88790130615234,1305,1
347,control,22.0,2,0,593.9469337463379,593.9431190490723,1388,0
348,control,22.0,2,0,627.0389556884766,627.0358562469482,1443,1
349,control,23.0,8,1,594.9258804321289,594.9239730834961,1340,0
350,control,23.0,8,1,502.57015228271484,502.56800651550293,1428,1
351,control,24.0,15,0,395.90907096862793,395.906925201416,1187,0
352,control,24.0,15,1,527.1930694580078,527.1871089935303,944,1
353,control,25.0,8,1,395.74408531188965,395.7409858703613,1027,1
354,control,26.0,12,1,426.2127876281738,426.2058734893799,947,1
355,control,27.0,9,1,592.371940612793,592.3700332641602,1360,1
356,control,28.0,12,1,493.81399154663086,493.81089210510254,943,1
357,control,29.0,12,0,405.3959846496582,405.3928852081299,1032,1
358,control,30.0,14,1,405.12800216674805,405.12585639953613,1175,1
359,control,5.0,18,1,195.65105438232422,821.6071128845215,924,1
360,control,6.0,5,1,132.8279972076416,427.0040988922119,1396,1
361,control,7.0,5,1,286.5748405456543,583.7399959564209,1003,1
362,control,8.0,2,1,493.441104888916,493.4389591217041,1372,1
363,control,9.0,8,1,494.2288398742676,494.22311782836914,1302,1
364,control,10.0,2,1,199.3997097015381,593.8470363616943,1479,1
365,control,11.0,8,1,98.9539623260498,496.6912269592285,1487,0
366,control,11.0,8,1,198.46606254577637,624.6919631958008,938,1
367,control,12.0,5,0,695.4529285430908,695.4491138458252,837,1
368,control,13.0,5,1,634.2446804046631,634.2408657073975,1245,1
369,control,14.0,12,1,385.23101806640625,385.23006439208984,1151,1
370,control,15.0,9,1,595.6051349639893,595.6010818481445,1221,1
371,control,16.0,6,1,497.2388744354248,497.2379207611084,1290,1
372,control,17.0,9,1,623.8117218017578,623.809814453125,941,1
373,control,18.0,16,1,525.465726852417,525.460958480835,1362,1
374,control,19.0,11,1,426.1767864227295,426.16987228393555,1296,1
375,control,20.0,6,0,594.0659046173096,594.0637588500977,1073,1
376,control,21.0,8,1,593.4441089630127,593.4431552886963,1417,1
377,control,22.0,5,0,690.91796875,690.9136772155762,858,1
378,control,23.0,8,1,593.4629440307617,593.458890914917,1387,1
379,control,24.0,15,0,594.1550731658936,594.1479206085205,1241,1
380,control,25.0,8,1,493.94989013671875,493.9429759979248,900,1
381,control,26.0,11,1,494.1689968109131,494.1670894622803,1458,1
382,control,27.0,9,1,393.9211368560791,393.91589164733887,836,0
383,control,27.0,9,1,293.4997081756592,293.49279403686523,1050,1
384,control,28.0,12,1,493.8843250274658,493.8821792602539,1030,1
385,control,29.0,14,0,603.7440299987793,603.7430763244629,1057,0
386,control,29.0,14,1,592.1061038970947,592.1030044555664,1244,1
387,control,30.0,14,1,594.3770408630371,594.3710803985596,1150,1
388,control,5.0,18,0,99.2281436920166,504.8530101776123,1367,1
389,control,6.0,5,1,493.7779903411865,493.7758445739746,1381,1
390,control,7.0,5,1,492.9358959197998,492.92802810668945,1201,1
391,control,8.0,1,0,98.72007369995117,624.7720718383789,1263,1
392,control,9.0,6,1,98.88100624084473,592.7212238311768,1368,1
393,control,10.0,1,1,99.02095794677734,504.43005561828613,975,1
394,control,11.0,6,1,100.04806518554688,395.6131935119629,1353,1
395,control,12.0,8,0,295.5589294433594,295.55511474609375,860,1
396,control,13.0,5,1,801.8028736114502,801.7950057983398,938,1
397,control,14.0,11,1,494.4040775299072,494.398832321167,1328,1
398,control,15.0,8,1,725.0902652740479,725.0821590423584,879,1
399,control,16.0,6,1,496.3822364807129,496.37293815612793,883,1
400,control,17.0,8,1,397.0489501953125,397.0479965209961,826,1
401,control,18.0,15,1,890.4850482940674,890.4809951782227,1315,1
402,control,19.0,9,0,494.0059185028076,494.0037727355957,823,1
403,control,20.0,8,0,494.13204193115234,494.1291809082031,1367,1
404,control,21.0,6,1,526.4711380004883,526.46803855896,1479,1
405,control,22.0,8,1,393.8727378845215,393.86987686157227,902,1
406,control,23.0,6,1,624.4380474090576,624.4361400604248,1182,1
407,control,24.0,16,1,525.7008075714111,525.69580078125,1003,1
408,control,25.0,6,0,426.3906478881836,426.3889789581299,1127,0
409,control,25.0,6,0,492.4612045288086,492.4581050872803,1119,1
410,control,26.0,11,0,394.08111572265625,394.07825469970703,1089,1
411,control,27.0,8,0,791.9280529022217,791.9249534606934,1095,1
412,control,28.0,11,1,492.9940700531006,492.9921627044678,925,1
413,control,29.0,14,1,494.3077564239502,494.29774284362793,926,1
414,control,30.0,13,1,494.63915824890137,494.63605880737305,1294,1
1,quadbright,5.0,20,1,297.3952293395996,624.6941089630127,1122,1
2,quadbright,6.0,20,1,394.268274307251,394.26207542419434,976,1
3,quadbright,7.0,20,1,295.73512077331543,395.23792266845703,1087,1
4,quadbright,8.0,20,1,229.8600673675537,526.0779857635498,1161,1
5,quadbright,9.0,20,1,492.5830364227295,492.57707595825195,809,1
6,quadbright,10.0,20,1,400.0730514526367,400.0709056854248,853,1
7,quadbright,11.0,20,1,493.73507499694824,493.7300682067871,855,1
8,quadbright,12.0,20,1,591.6192531585693,591.6149616241455,1157,1
9,quadbright,13.0,20,1,524.6148109436035,524.6119499206543,1325,1
10,quadbright,14.0,20,1,394.46520805358887,394.46306228637695,882,1
11,quadbright,15.0,20,1,594.9182510375977,594.9161052703857,1268,1
12,quadbright,16.0,20,1,591.5548801422119,591.5539264678955,908,1
13,quadbright,17.0,20,1,593.5211181640625,593.5180187225342,1012,1
14,quadbright,18.0,20,1,393.906831741333,393.90063285827637,1456,1
15,quadbright,19.0,20,1,594.7959423065186,594.7940349578857,1235,1
16,quadbright,20.0,20,1,493.1221008300781,493.1178092956543,1165,1
17,quadbright,21.0,20,1,395.58887481689453,395.5798149108887,862,1
18,quadbright,22.0,20,1,627.2192001342773,627.2182464599609,895,1
19,quadbright,23.0,20,1,618.1309223175049,618.1299686431885,1336,1
20,quadbright,24.0,20,1,493.50881576538086,493.50500106811523,1441,1
21,quadbright,25.0,20,1,394.2887783050537,394.2878246307373,1328,1
22,quadbright,26.0,20,1,497.24578857421875,497.24483489990234,1345,1
23,quadbright,27.0,20,1,495.0428009033203,495.042085647583,1419,1
24,quadbright,28.0,20,1,580.7440280914307,580.7428359985352,1261,1
25,quadbright,29.0,20,1,592.5991535186768,592.5939083099365,908,1
26,quadbright,30.0,20,1,700.5312442779541,700.5250453948975,1093,1
27,quadbright,5.0,20,1,97.92089462280273,527.8189182281494,1486,1
28,quadbright,6.0,20,1,198.0268955230713,492.7968978881836,1098,1
29,quadbright,7.0,20,1,199.10025596618652,593.7900543212891,1062,1
30,quadbright,8.0,20,1,603.7812232971191,603.7790775299072,1275,1
31,quadbright,9.0,20,1,494.8768615722656,494.8711395263672,1349,1
32,quadbright,10.0,20,1,421.22697830200195,421.22602462768555,1113,1
33,quadbright,11.0,20,1,497.2949028015137,497.29275703430176,1025,1
34,quadbright,12.0,20,1,494.00806427001953,494.0061569213867,1106,1
35,quadbright,13.0,20,1,394.32787895202637,394.32477951049805,1293,1
36,quadbright,14.0,20,1,493.93486976623535,493.9267635345459,1073,1
37,quadbright,15.0,20,1,494.1861629486084,494.1821098327637,1421,1
38,quadbright,16.0,20,1,593.1549072265625,593.1529998779297,916,1
39,quadbright,17.0,20,1,591.425895690918,591.4230346679688,881,1
40,quadbright,18.0,20,1,504.99606132507324,504.9929618835449,876,1
41,quadbright,19.0,20,1,395.4958915710449,395.4899311065674,1480,1
42,quadbright,20.0,20,1,591.7398929595947,591.7339324951172,1355,1
43,quadbright,21.0,20,1,597.8107452392578,597.8050231933594,1052,1
44,quadbright,22.0,20,1,593.4929847717285,593.491792678833,1221,1
45,quadbright,23.0,20,1,988.5869026184082,988.5842800140381,1493,1
46,quadbright,24.0,20,1,493.97802352905273,493.9749240875244,1170,1
47,quadbright,25.0,20,1,494.5199489593506,494.5199489593506,895,1
48,quadbright,26.0,20,1,502.5448799133301,502.54297256469727,1403,1
49,quadbright,27.0,20,1,495.9731101989746,495.9731101989746,1317,1
50,quadbright,28.0,20,1,485.59093475341797,485.58998107910156,1086,1
51,quadbright,29.0,20,1,595.9150791168213,595.9110260009766,1367,1
52,quadbright,30.0,20,1,491.2891387939453,491.2838935852051,1457,1
53,quadbright,5.0,17,1,98.17194938659668,485.08715629577637,1405,1
54,quadbright,6.0,17,1,197.62825965881348,594.0210819244385,1425,1
55,quadbright,7.0,17,1,100.33798217773438,394.52099800109863,1489,1
56,quadbright,8.0,17,1,197.58987426757812,599.5810031890869,1001,1
57,quadbright,9.0,17,1,493.4239387512207,493.41893196105957,898,1
58,quadbright,10.0,17,1,594.3748950958252,594.3741798400879,1193,1
59,quadbright,11.0,17,1,604.0680408477783,604.060173034668,1113,1
60,quadbright,12.0,17,1,592.3819541931152,592.3762321472168,937,1
61,quadbright,13.0,17,1,492.60425567626953,492.5968647003174,867,1
62,quadbright,14.0,17,1,495.1329231262207,495.1317310333252,1054,1
63,quadbright,15.0,17,0,989.2158508300781,989.2127513885498,1495,1
64,quadbright,16.0,17,1,592.540979385376,592.536211013794,931,1
65,quadbright,17.0,17,1,495.12219429016113,495.1210021972656,1173,1
66,quadbright,18.0,17,1,592.3619270324707,592.3559665679932,1078,1
67,quadbright,19.0,17,1,789.5421981811523,789.5402908325195,1465,1
68,quadbright,20.0,17,1,493.33715438842773,493.3340549468994,1229,1
69,quadbright,21.0,17,1,593.9140319824219,593.9130783081055,1127,1
70,quadbright,22.0,17,1,497.028112411499,497.0250129699707,802,1
71,quadbright,23.0,17,1,990.3318881988525,990.3311729431152,1423,1
72,quadbright,24.0,17,1,594.27809715271,594.2709445953369,1365,1
73,quadbright,25.0,17,1,603.1837463378906,603.1780242919922,1284,1
74,quadbright,26.0,17,1,591.660737991333,591.6578769683838,853,1
75,quadbright,27.0,17,1,483.08372497558594,483.08300971984863,1193,1
76,quadbright,28.0,17,1,492.79189109802246,492.78903007507324,1294,1
77,quadbright,29.0,17,1,593.6150550842285,593.6100482940674,1319,1
78,quadbright,30.0,17,1,693.6860084533691,693.6850547790527,995,1
79,quadbright,5.0,17,1,98.75893592834473,893.1560516357422,1459,1
80,quadbright,6.0,17,1,228.89208793640137,614.2971515655518,927,1
81,quadbright,7.0,17,1,131.29615783691406,525.007963180542,823,1
82,quadbright,8.0,17,1,130.93090057373047,427.69408226013184,1417,1
83,quadbright,9.0,17,1,625.241756439209,625.2400875091553,1015,1
84,quadbright,10.0,17,1,400.48789978027344,400.4848003387451,1102,1
85,quadbright,11.0,17,1,493.24607849121094,493.23201179504395,1416,1
86,quadbright,12.0,17,1,393.6169147491455,393.6150074005127,1433,1
87,quadbright,13.0,17,1,398.32496643066406,398.32186698913574,807,1
88,quadbright,14.0,17,1,428.2970428466797,428.2948970794678,1300,1
89,quadbright,15.0,20,1,397.69601821899414,397.69530296325684,1235,1
90,quadbright,16.0,17,1,400.53510665893555,400.5312919616699,849,1
91,quadbright,17.0,17,1,494.2808151245117,494.2777156829834,1257,1
92,quadbright,18.0,17,1,624.596118927002,624.5951652526855,1406,1
93,quadbright,19.0,17,1,725.8150577545166,725.8131504058838,1414,1
94,quadbright,20.0,17,1,427.8120994567871,427.8111457824707,1135,1
95,quadbright,21.0,17,1,483.7169647216797,483.7160110473633,1149,1
96,quadbright,22.0,17,1,594.8550701141357,594.8531627655029,1280,1
97,quadbright,23.0,17,1,394.99688148498535,394.99592781066895,1402,1
98,quadbright,24.0,17,1,494.28820610046387,494.28296089172363,941,1
99,quadbright,25.0,17,1,496.7067241668701,496.7050552368164,937,1
100,quadbright,26.0,17,1,492.42115020751953,492.4190044403076,911,1
101,quadbright,27.0,17,1,607.0079803466797,606.9839000701904,1418,1
102,quadbright,28.0,17,1,592.1332836151123,592.1280384063721,837,1
103,quadbright,29.0,17,1,592.9040908813477,592.900276184082,1034,0
104,quadbright,29.0,17,1,593.5590267181396,593.5559272766113,1206,1
105,quadbright,30.0,17,1,593.1720733642578,593.1699275970459,1079,1
106,quadbright,5.0,14,1,98.99783134460449,502.3307800292969,932,1
107,quadbright,6.0,14,1,98.71912002563477,901.4410972595215,990,1
108,quadbright,7.0,14,1,595.771074295044,595.7629680633545,1404,1
109,quadbright,8.0,14,1,98.29401969909668,592.5388336181641,1137,1
110,quadbright,9.0,14,1,484.7276210784912,484.7269058227539,1128,1
111,quadbright,10.0,14,1,1000.0488758087158,1000.0441074371338,1098,1
112,quadbright,11.0,14,1,492.60783195495605,492.60497093200684,1058,1
113,quadbright,12.0,14,1,527.209997177124,527.2057056427002,1081,1
114,quadbright,13.0,14,1,494.539737701416,494.5390224456787,837,1
115,quadbright,14.0,14,1,493.25060844421387,493.24798583984375,1388,1
116,quadbright,15.0,20,1,494.77505683898926,494.77291107177734,1157,1
117,quadbright,16.0,14,1,494.9297904968262,494.92883682250977,1209,1
118,quadbright,17.0,14,1,603.7759780883789,603.7728786468506,1115,1
119,quadbright,18.0,14,1,502.86006927490234,502.85911560058594,962,1
120,quadbright,19.0,14,1,492.16198921203613,492.1579360961914,1213,1
121,quadbright,20.0,14,1,891.6339874267578,891.6308879852295,1141,0
122,quadbright,20.0,14,1,625.5500316619873,625.5440711975098,964,1
123,quadbright,21.0,14,1,526.979923248291,526.9787311553955,1208,1
124,quadbright,22.0,14,1,593.7809944152832,593.7767028808594,1385,1
125,quadbright,23.0,14,1,606.1451435089111,606.1413288116455,986,1
126,quadbright,24.0,14,1,624.2790222167969,624.2718696594238,991,1
127,quadbright,25.0,14,1,593.7478542327881,593.7447547912598,1407,1
128,quadbright,26.0,14,1,593.8098430633545,593.8050746917725,839,0
129,quadbright,26.0,14,1,1978.0421257019043,1978.034257888794,988,0
130,quadbright,26.0,14,1,703.40895652771,703.4060955047607,1004,1
131,quadbright,27.0,14,1,493.4520721435547,493.44515800476074,1307,1
132,quadbright,28.0,14,1,494.57311630249023,494.5700168609619,1265,1
133,quadbright,29.0,14,1,889.4238471984863,889.4200325012207,856,1
134,quadbright,30.0,14,1,493.1778907775879,493.175745010376,991,1
135,quadbright,5.0,14,1,198.5940933227539,495.9430694580078,1440,1
136,quadbright,6.0,14,1,593.5781002044678,593.5750007629395,1119,1
137,quadbright,7.0,14,1,493.5638904571533,493.5598373413086,1303,1
138,quadbright,8.0,14,1,99.48921203613281,629.0712356567383,838,1
139,quadbright,9.0,14,1,99.66802597045898,593.1880474090576,1016,1
140,quadbright,10.0,14,1,130.79380989074707,638.7629508972168,1427,1
141,quadbright,11.0,14,1,504.03714179992676,504.0323734283447,1437,1
142,quadbright,12.0,14,1,692.4679279327393,692.4600601196289,1359,1
143,quadbright,13.0,14,1,536.3121032714844,536.309003829956,872,1
144,quadbright,14.0,14,1,492.36488342285156,492.36202239990234,1306,1
145,quadbright,15.0,18,1,396.44384384155273,396.44312858581543,1284,1
146,quadbright,16.0,14,1,590.0070667266846,590.0013446807861,1444,1
147,quadbright,17.0,14,1,505.9840679168701,505.9809684753418,1370,1
148,quadbright,18.0,14,1,494.8430061340332,494.840145111084,811,1
149,quadbright,19.0,14,1,483.77180099487305,483.77084732055664,1368,1
150,quadbright,20.0,14,1,388.02099227905273,388.0198001861572,1132,1
151,quadbright,21.0,14,1,592.6299095153809,592.628002166748,1500,1
152,quadbright,22.0,14,1,593.5580730438232,593.5549736022949,1081,1
153,quadbright,23.0,14,1,504.0879249572754,504.08101081848145,1228,1
154,quadbright,24.0,14,1,590.5611515045166,590.5570983886719,909,1
155,quadbright,25.0,14,1,1120.8839416503906,1120.8829879760742,1002,1
156,quadbright,26.0,14,1,691.4539337158203,691.4517879486084,817,1
157,quadbright,27.0,14,1,527.0750522613525,527.0700454711914,863,1
158,quadbright,28.0,14,1,823.261022567749,823.2560157775879,1467,1
159,quadbright,29.0,14,1,737.2260093688965,737.2241020202637,1341,1
160,quadbright,30.0,14,1,517.0018672943115,516.9997215270996,980,1
161,quadbright,5.0,11,1,196.88701629638672,593.5280323028564,1073,1
162,quadbright,6.0,11,1,98.08802604675293,494.68493461608887,1172,1
163,quadbright,7.0,11,1,99.9140739440918,426.0292053222656,985,1
164,quadbright,8.0,11,1,98.68979454040527,431.17403984069824,1018,1
165,quadbright,9.0,11,1,429.351806640625,429.34393882751465,1345,1
166,quadbright,10.0,11,1,1020.8051204681396,1020.8020210266113,1043,1
167,quadbright,11.0,11,1,491.483211517334,491.47915840148926,1352,1
168,quadbright,12.0,11,1,395.7798480987549,395.77579498291016,1307,1
169,quadbright,13.0,11,1,427.750825881958,427.74510383605957,1066,1
170,quadbright,14.0,11,0,493.635892868042,493.63207817077637,1442,1
171,quadbright,15.0,18,1,527.5588035583496,527.5568962097168,1099,1
172,quadbright,16.0,11,1,592.451810836792,592.444896697998,860,1
173,quadbright,17.0,11,1,494.70996856689453,494.7090148925781,1414,1
174,quadbright,18.0,11,1,492.9659366607666,492.95711517333984,1406,1
175,quadbright,19.0,11,1,495.29170989990234,495.29075622558594,1163,1
176,quadbright,20.0,11,1,481.8308353424072,481.8298816680908,858,1
177,quadbright,21.0,11,1,485.6729507446289,485.6717586517334,1409,1
178,quadbright,22.0,11,1,595.4678058624268,595.4608917236328,1392,1
179,quadbright,23.0,11,1,527.3740291595459,527.3678302764893,1088,1
180,quadbright,24.0,11,1,497.7841377258301,497.7688789367676,1384,1
181,quadbright,25.0,11,1,583.9622020721436,583.9612483978271,959,1
182,quadbright,26.0,11,1,593.2772159576416,593.2712554931641,827,1
183,quadbright,27.0,11,1,594.5160388946533,594.5112705230713,1017,1
184,quadbright,28.0,11,0,889.9142742156982,889.9083137512207,847,1
185,quadbright,29.0,11,0,679.8110008239746,679.8098087310791,1250,1
186,quadbright,30.0,11,1,591.6447639465332,591.6416645050049,1239,1
187,quadbright,5.0,11,1,98.71292114257812,494.7779178619385,1438,1
188,quadbright,6.0,11,1,99.19404983520508,495.03397941589355,1067,1
189,quadbright,7.0,11,1,197.70336151123047,483.0031394958496,1258,1
190,quadbright,8.0,11,1,98.97398948669434,493.9568042755127,1365,1
191,quadbright,9.0,11,1,494.8239326477051,494.8229789733887,1417,1
192,quadbright,10.0,11,1,590.7571315765381,590.7540321350098,986,1
193,quadbright,11.0,11,1,99.8227596282959,494.9798583984375,984,1
194,quadbright,12.0,11,1,593.7762260437012,593.7721729278564,1026,1
195,quadbright,13.0,11,1,394.64712142944336,394.6411609649658,1162,1
196,quadbright,14.0,14,1,401.0441303253174,401.04007720947266,1454,1
197,quadbright,15.0,17,1,494.1248893737793,494.1229820251465,1222,1
198,quadbright,16.0,11,1,493.6230182647705,493.61491203308105,1423,1
199,quadbright,17.0,11,1,515.6891345977783,515.6879425048828,1256,1
200,quadbright,18.0,11,1,494.9028491973877,494.9021339416504,877,0
201,quadbright,18.0,11,1,493.2899475097656,493.2858943939209,1017,1
202,quadbright,19.0,11,1,591.4599895477295,591.4580821990967,962,1
203,quadbright,20.0,11,1,591.4309024810791,591.4278030395508,1003,1
204,quadbright,21.0,11,1,493.3769702911377,493.36910247802734,853,1
205,quadbright,22.0,11,1,782.0889949798584,782.0868492126465,1415,0
206,quadbright,22.0,11,1,492.80691146850586,492.80309677124023,835,1
207,quadbright,23.0,11,1,491.90807342529297,491.90402030944824,806,1
208,quadbright,24.0,11,1,494.5039749145508,494.50016021728516,1028,1
209,quadbright,25.0,11,1,592.5979614257812,592.5941467285156,1278,1
210,quadbright,26.0,11,0,526.4229774475098,526.4136791229248,1458,1
211,quadbright,27.0,11,1,537.287712097168,537.2838973999023,820,1
212,quadbright,28.0,14,1,703.2208442687988,703.2170295715332,954,1
213,quadbright,29.0,14,0,691.072940826416,691.0698413848877,1167,1
214,quadbright,30.0,11,0,594.1460132598877,594.1450595855713,1360,1
215,quadbright,5.0,8,1,98.89602661132812,394.69408988952637,996,1
216,quadbright,6.0,8,1,98.90103340148926,395.62296867370605,1492,1
217,quadbright,7.0,8,1,197.45588302612305,486.6921901702881,1237,1
218,quadbright,8.0,8,1,593.4081077575684,593.4069156646729,1312,1
219,quadbright,9.0,8,1,104.08902168273926,399.3861675262451,985,0
220,quadbright,9.0,8,1,790.4031276702881,790.398120880127,1479,1
221,quadbright,10.0,8,1,525.3560543060303,525.3548622131348,1396,1
222,quadbright,11.0,8,1,493.65687370300293,493.6549663543701,1079,1
223,quadbright,12.0,8,1,493.8631057739258,493.85595321655273,1084,1
224,quadbright,13.0,8,1,494.9789047241211,494.9779510498047,1495,1
225,quadbright,14.0,14,1,494.1279888153076,494.1229820251465,1425,1
226,quadbright,15.0,17,1,882.5321197509766,882.530927658081,1110,1
227,quadbright,16.0,8,0,890.6190395355225,890.6149864196777,1018,1
228,quadbright,17.0,8,1,494.2290782928467,494.2281246185303,1007,1
229,quadbright,18.0,8,1,295.24922370910645,295.24707794189453,1235,1
230,quadbright,19.0,8,1,492.49935150146484,492.4931526184082,918,1
231,quadbright,20.0,8,1,690.9198760986328,690.9170150756836,973,1
232,quadbright,21.0,8,0,594.322919845581,594.3219661712646,952,1
233,quadbright,22.0,8,1,494.20785903930664,494.2018985748291,1149,1
234,quadbright,23.0,8,1,493.30878257751465,493.3030605316162,1122,1
235,quadbright,24.0,8,0,987.8389835357666,987.8368377685547,903,1
236,quadbright,25.0,8,0,991.6841983795166,991.6799068450928,1135,1
237,quadbright,26.0,14,1,492.39516258239746,492.3880100250244,1254,1
238,quadbright,27.0,8,0,402.92930603027344,402.91833877563477,916,1
239,quadbright,28.0,14,1,491.710901260376,491.7027950286865,1273,1
240,quadbright,29.0,17,1,503.324031829834,503.32117080688477,1024,1
241,quadbright,30.0,14,1,497.6491928100586,497.64513969421387,1323,1
242,quadbright,5.0,8,1,98.99020195007324,395.9543704986572,1266,1
243,quadbright,6.0,8,1,132.09199905395508,428.0397891998291,944,1
244,quadbright,7.0,8,1,98.19984436035156,427.9158115386963,1212,1
245,quadbright,8.0,8,1,425.9059429168701,425.8990287780762,905,1
246,quadbright,9.0,8,1,494.8992729187012,494.89808082580566,1474,1
247,quadbright,10.0,8,1,516.7529582977295,516.7520046234131,928,1
248,quadbright,11.0,8,1,393.92614364624023,393.9208984375,1290,1
249,quadbright,12.0,8,1,791.9321060180664,791.9309139251709,1380,1
250,quadbright,13.0,8,0,882.1570873260498,882.1558952331543,927,1
251,quadbright,14.0,12,0,592.9090976715088,592.9021835327148,1164,1
252,quadbright,15.0,15,1,494.7490692138672,494.7481155395508,995,1
253,quadbright,16.0,11,1,603.9888858795166,603.9838790893555,1208,1
254,quadbright,17.0,8,1,495.08213996887207,495.08094787597656,968,1
255,quadbright,18.0,8,0,536.4599227905273,536.4551544189453,965,1
256,quadbright,19.0,8,0,494.9357509613037,494.9300289154053,970,1
257,quadbright,20.0,8,1,492.7358627319336,492.7349090576172,865,1
258,quadbright,21.0,11,1,493.5600757598877,493.5569763183594,990,1
259,quadbright,22.0,8,1,593.7931537628174,593.7919616699219,1220,1
260,quadbright,23.0,8,1,493.1371212005615,493.1309223175049,990,1
261,quadbright,24.0,11,1,527.1928310394287,527.1921157836914,859,1
262,quadbright,25.0,11,1,592.8390026092529,592.8330421447754,1012,1
263,quadbright,26.0,14,0,594.1157341003418,594.1128730773926,808,1
264,quadbright,27.0,11,1,494.4188594818115,494.4181442260742,1205,1
265,quadbright,28.0,12,0,493.6490058898926,493.6411380767822,1233,1
266,quadbright,29.0,17,1,494.6901798248291,494.68231201171875,1022,1
267,quadbright,30.0,14,0,495.2421188354492,495.2380657196045,1311,1
268,quadbright,5.0,5,1,97.99814224243164,591.472864151001,925,1
269,quadbright,6.0,5,1,99.57480430603027,495.27573585510254,1215,1
270,quadbright,7.0,5,1,504.0898323059082,504.0886402130127,1336,1
271,quadbright,8.0,5,1,488.0821704864502,488.0809783935547,846,1
272,quadbright,9.0,5,0,593.34397315979,593.339204788208,893,1
273,quadbright,10.0,5,0,583.39524269104,583.3940505981445,920,1
274,quadbright,11.0,5,0,386.8110179901123,386.8100643157959,1167,1
275,quadbright,12.0,5,1,427.6132583618164,427.6080131530762,852,1
276,quadbright,13.0,11,0,615.8688068389893,615.8678531646729,1234,1
277,quadbright,14.0,14,1,514.8131847381592,514.8119926452637,1319,1
278,quadbright,15.0,15,1,517.5278186798096,517.5266265869141,1476,1
279,quadbright,16.0,11,0,875.8978843688965,875.8969306945801,1117,1
280,quadbright,17.0,5,0,822.0932483673096,822.0901489257812,955,1
281,quadbright,18.0,11,1,626.5079975128174,626.507043838501,1277,1
282,quadbright,19.0,11,1,494.01402473449707,494.00877952575684,1478,1
283,quadbright,20.0,5,1,879.4398307800293,879.4386386871338,852,1
284,quadbright,21.0,11,1,881.2239170074463,881.2229633331299,1287,1
285,quadbright,22.0,5,1,714.6220207214355,714.62082862854,1148,0
286,quadbright,22.0,5,0,725.7750034332275,725.7628440856934,1274,0
287,quadbright,22.0,5,0,525.3098011016846,525.3047943115234,838,1
288,quadbright,23.0,5,0,493.3733940124512,493.36814880371094,849,1
289,quadbright,24.0,11,1,688.7657642364502,688.7648105621338,1039,1
290,quadbright,25.0,11,1,493.2742118835449,493.2689666748047,990,1
291,quadbright,26.0,15,1,593.3971405029297,593.3961868286133,1403,1
292,quadbright,27.0,11,1,624.5429515838623,624.5338916778564,978,1
293,quadbright,28.0,14,0,716.9930934906006,716.9921398162842,1019,1
294,quadbright,29.0,15,1,625.4537105560303,625.4489421844482,1210,1
295,quadbright,30.0,15,1,1108.5832118988037,1108.5820198059082,968,1
296,quadbright,5.0,5,1,593.1229591369629,593.1169986724854,1042,1
297,quadbright,6.0,5,1,99.27988052368164,592.2648906707764,1324,1
298,quadbright,7.0,5,1,196.88820838928223,593.9719676971436,1444,0
299,quadbright,7.0,5,1,603.6698818206787,603.665828704834,909,1
300,quadbright,8.0,5,0,98.93989562988281,636.3809108734131,1381,1
301,quadbright,9.0,8,1,100.55708885192871,484.60912704467773,1061,1
302,quadbright,10.0,8,1,100.03995895385742,526.0570049285889,1200,1
303,quadbright,11.0,8,1,98.53792190551758,493.4389591217041,1196,1
304,quadbright,12.0,5,0,801.3961315155029,801.3930320739746,1311,1
305,quadbright,13.0,14,1,99.08699989318848,495.0079917907715,1268,1
306,quadbright,14.0,14,1,583.366870880127,583.3659172058105,1047,1
307,quadbright,15.0,14,1,505.0628185272217,505.05971908569336,1108,1
308,quadbright,16.0,12,1,493.68977546691895,493.6838150024414,922,1
309,quadbright,17.0,8,0,690.0889873504639,690.0777816772461,1273,1
310,quadbright,18.0,11,1,822.7760791778564,822.7729797363281,1111,1
311,quadbright,19.0,11,1,693.2427883148193,693.2399272918701,1143,1
312,quadbright,20.0,5,0,593.2340621948242,593.2331085205078,850,1
313,quadbright,21.0,9,1,526.7479419708252,526.7441272735596,1394,1
314,quadbright,22.0,8,1,691.1909580230713,691.1869049072266,1152,0
315,quadbright,22.0,8,1,521.3587284088135,521.3568210601807,1415,1
316,quadbright,23.0,8,0,494.2440986633301,494.23694610595703,1456,1
317,quadbright,24.0,9,0,493.7090873718262,493.70503425598145,1400,1
318,quadbright,25.0,9,0,497.62988090515137,497.62797355651855,1375,1
319,quadbright,26.0,15,1,494.2910671234131,494.28725242614746,1299,1
320,quadbright,27.0,9,0,494.9493408203125,494.94314193725586,987,1
321,quadbright,28.0,15,1,593.0130481719971,593.0092334747314,1004,1
322,quadbright,29.0,15,1,633.983850479126,633.9800357818604,876,1
323,quadbright,30.0,15,1,493.06225776672363,493.056058883667,1194,1
324,quadbright,5.0,2,1,97.22304344177246,591.4690494537354,1368,1
325,quadbright,6.0,2,0,98.70576858520508,602.3740768432617,1168,1
326,quadbright,7.0,2,0,106.25910758972168,732.6631546020508,1250,1
327,quadbright,8.0,8,1,197.3428726196289,493.0849075317383,1384,1
328,quadbright,9.0,8,1,494.8899745941162,494.88282203674316,1063,0
329,quadbright,9.0,8,1,593.6758518218994,593.6739444732666,1456,0
330,quadbright,9.0,8,1,198.2121467590332,495.76711654663086,1488,1
331,quadbright,10.0,8,1,536.9572639465332,536.9541645050049,1268,0
332,quadbright,10.0,8,1,493.14403533935547,493.14188957214355,839,1
333,quadbright,11.0,8,1,692.1782493591309,692.1720504760742,1346,1
334,quadbright,12.0,8,0,618.0667877197266,618.0658340454102,1229,1
335,quadbright,13.0,14,1,496.1271286010742,496.124267578125,1274,1
336,quadbright,14.0,13,1,891.1721706390381,891.1170959472656,853,1
337,quadbright,15.0,14,1,284.6710681915283,284.6710681915283,1200,1
338,quadbright,16.0,12,1,592.4050807952881,592.3981666564941,1108,1
339,quadbright,17.0,11,1,528.4726619720459,528.4719467163086,992,1
340,quadbright,18.0,9,1,493.13807487487793,493.135929107666,803,0
341,quadbright,18.0,9,1,617.8512573242188,617.8500652313232,1436,1
342,quadbright,19.0,9,1,484.6022129058838,484.6010208129883,1435,1
343,quadbright,20.0,8,1,733.7238788604736,733.7217330932617,1347,1
344,quadbright,21.0,9,1,635.1079940795898,635.1020336151123,1456,1
345,quadbright,22.0,8,1,690.7880306243896,690.7811164855957,1222,1
346,quadbright,23.0,11,1,716.1421775817871,716.1409854888916,1091,0
347,quadbright,23.0,11,0,493.69001388549805,493.6838150024414,1181,1
348,quadbright,24.0,11,1,494.98486518859863,494.9839115142822,1454,1
349,quadbright,25.0,11,1,626.4770030975342,626.4760494232178,1386,1
350,quadbright,26.0,14,1,694.9779987335205,694.9708461761475,885,1
351,quadbright,27.0,11,1,493.26205253601074,493.2570457458496,1048,1
352,quadbright,28.0,15,0,592.1800136566162,592.1721458435059,1386,1
353,quadbright,29.0,14,1,405.6820869445801,405.67898750305176,1026,1
354,quadbright,30.0,14,0,603.9252281188965,603.9221286773682,1122,1
355,quadbright,5.0,2,0,197.5400447845459,493.4661388397217,1126,1
356,quadbright,6.0,5,1,197.5541114807129,493.8521385192871,978,1
357,quadbright,7.0,5,1,198.49014282226562,594.3958759307861,945,1
358,quadbright,8.0,8,1,404.7389030456543,404.73079681396484,1346,1
359,quadbright,9.0,6,1,98.68907928466797,395.2522277832031,866,1
360,quadbright,10.0,6,1,197.59488105773926,394.3779468536377,1194,1
361,quadbright,11.0,6,1,196.73800468444824,295.3341007232666,1345,1
362,quadbright,12.0,11,1,1019.9000835418701,1019.8962688446045,1078,1
363,quadbright,13.0,12,1,803.0290603637695,803.0247688293457,1427,1
364,quadbright,14.0,13,1,494.2319393157959,494.2290782928467,1348,1
365,quadbright,15.0,12,1,593.4548377990723,593.4467315673828,1484,1
366,quadbright,16.0,11,1,493.0720329284668,493.0610656738281,1369,1
367,quadbright,17.0,11,1,592.3798084259033,592.3688411712646,1463,1
368,quadbright,18.0,9,0,692.8420066833496,692.8410530090332,1271,1
369,quadbright,19.0,9,1,394.91796493530273,394.9151039123535,1003,1
370,quadbright,20.0,8,1,493.70884895324707,493.6997890472412,892,1
371,quadbright,21.0,8,1,525.1212120056152,525.1169204711914,896,1
372,quadbright,22.0,6,1,492.8860664367676,492.88105964660645,910,1
373,quadbright,23.0,14,1,493.59703063964844,493.5929775238037,1265,1
374,quadbright,24.0,11,0,692.9750442504883,692.9740905761719,1156,1
375,quadbright,25.0,11,1,396.74901962280273,396.7480659484863,1163,1
376,quadbright,26.0,14,1,626.6341209411621,626.6288757324219,1124,1
377,quadbright,27.0,11,0,816.3349628448486,816.3340091705322,1413,1
378,quadbright,28.0,16,1,625.1950263977051,625.1938343048096,855,1
379,quadbright,29.0,14,1,484.9681854248047,484.9672317504883,1158,1
380,quadbright,30.0,15,1,527.5609493255615,527.5568962097168,1081,1
381,quadbright,5.0,5,1,97.41497039794922,910.9718799591064,921,1
382,quadbright,6.0,5,1,98.20199012756348,504.12511825561523,1234,1
383,quadbright,7.0,5,1,500.8959770202637,500.89287757873535,801,1
384,quadbright,8.0,6,1,693.8021183013916,693.7990188598633,1169,1
385,quadbright,9.0,6,0,890.7294273376465,890.7232284545898,928,1
386,quadbright,10.0,6,0,99.09987449645996,891.4439678192139,1453,1
387,quadbright,11.0,6,1,197.0500946044922,592.2050476074219,839,1
388,quadbright,12.0,11,1,197.94297218322754,494.2300319671631,906,1
389,quadbright,13.0,12,1,101.3798713684082,595.0620174407959,833,0
390,quadbright,13.0,12,1,97.47719764709473,1021.9969749450684,947,1
391,quadbright,14.0,12,1,398.08082580566406,398.07772636413574,1325,1
392,quadbright,15.0,12,1,882.9996585845947,882.9987049102783,1033,1
393,quadbright,16.0,11,1,593.8642024993896,593.8570499420166,1217,1
394,quadbright,17.0,9,1,626.4379024505615,626.4362335205078,1390,1
395,quadbright,18.0,11,1,525.7911682128906,525.7842540740967,1498,1
396,quadbright,19.0,8,1,588.2880687713623,588.2871150970459,1397,1
397,quadbright,20.0,6,0,484.56501960754395,484.56382751464844,1086,1
398,quadbright,21.0,8,1,900.8820056915283,900.8798599243164,944,1
399,quadbright,22.0,6,1,692.4018859863281,692.3987865447998,988,0
400,quadbright,22.0,6,1,878.7410259246826,878.7400722503662,1049,1
401,quadbright,23.0,14,0,427.51097679138184,427.5071620941162,1228,0
402,quadbright,23.0,14,1,592.724084854126,592.717170715332,986,1
403,quadbright,24.0,12,1,526.8862247467041,526.8850326538086,844,1
404,quadbright,25.0,10,1,581.8958282470703,581.8941593170166,1441,1
405,quadbright,26.0,13,1,614.2947673797607,614.2940521240234,1214,0
406,quadbright,26.0,13,1,495.6209659576416,495.6169128417969,810,1
407,quadbright,27.0,12,1,533.653974533081,533.646821975708,1334,0
408,quadbright,27.0,12,1,635.955810546875,635.9541416168213,1083,1
409,quadbright,28.0,16,1,593.0509567260742,593.0459499359131,831,1
410,quadbright,29.0,12,1,494.9970245361328,494.9960708618164,1135,1
411,quadbright,30.0,15,1,888.6518478393555,888.6427879333496,1026,1
