trial,condition,eccentricity,magnitude,correct,srt_ms,keyboard_rt_ms,pre_change_ms,valid
1,control,5.0,20,1,102.48589515686035,501.2547969818115,1174,1
2,control,6.0,20,1,99.9288558959961,499.5989799499512,1246,1
3,control,7.0,20,1,130.65028190612793,428.9212226867676,1200,1
4,control,8.0,20,1,306.73980712890625,505.8591365814209,935,1
5,control,9.0,20,1,399.3828296661377,993.5579299926758,930,1
6,control,10.0,20,1,395.98798751831055,890.5930519104004,912,1
7,control,11.0,20,1,493.56985092163086,493.56889724731445,1313,1
8,control,12.0,20,1,988.7380599975586,988.7349605560303,802,1
9,control,13.0,20,1,401.7140865325928,401.71217918395996,1340,1
10,control,14.0,20,1,505.49912452697754,505.4950714111328,1381,1
11,control,15.0,20,0,598.2849597930908,598.2818603515625,877,1
12,control,16.0,20,1,493.2873249053955,493.2851791381836,1422,1
13,control,17.0,20,1,496.967077255249,496.9658851623535,1179,1
14,control,18.0,20,1,395.65587043762207,395.65491676330566,1319,1
15,control,19.0,20,1,427.95419692993164,427.95324325561523,811,1
16,control,20.0,20,1,424.2391586303711,424.2370128631592,1440,1
17,control,21.0,20,1,491.5657043457031,491.5637969970703,1318,1
18,control,22.0,20,1,504.99725341796875,504.99510765075684,1359,1
19,control,23.0,20,1,991.7709827423096,991.7690753936768,917,1
20,control,24.0,20,1,494.3249225616455,494.3239688873291,1219,1
21,control,25.0,20,1,595.6761837005615,595.6730842590332,801,1
22,control,26.0,20,1,1530.668020248413,1530.6649208068848,916,1
23,control,27.0,20,1,495.7878589630127,495.7847595214844,919,1
24,control,28.0,20,1,496.5682029724121,496.5651035308838,814,1
25,control,29.0,20,1,698.6989974975586,698.6982822418213,1462,1
26,control,30.0,20,1,594.3999290466309,594.3999290466309,1257,1
27,control,5.0,20,1,134.41205024719238,629.8179626464844,1448,1
28,control,6.0,20,1,199.45120811462402,597.7652072906494,1003,1
29,control,7.0,20,1,398.56791496276855,398.56481552124023,1254,1
30,control,8.0,20,1,98.01387786865234,493.3450222015381,1140,1
31,control,9.0,20,1,100.24189949035645,584.3069553375244,1104,1
32,control,10.0,20,1,395.18189430236816,395.1740264892578,957,1
33,control,11.0,20,1,990.5860424041748,990.5850887298584,1433,1
34,control,12.0,20,1,492.9978847503662,492.9952621459961,948,1
35,control,13.0,20,1,594.4781303405762,594.4771766662598,1463,1
36,control,14.0,20,1,494.1380023956299,494.13514137268066,1416,1
37,control,15.0,23,1,495.68986892700195,495.68891525268555,1057,1
38,control,16.0,20,1,485.68177223205566,485.68081855773926,1064,1
39,control,17.0,20,1,498.60501289367676,498.60191345214844,1086,1
40,control,18.0,20,0,1089.7810459136963,1089.7800922393799,1263,1
41,control,19.0,20,1,197.95584678649902,1299.9281883239746,1389,1
42,control,20.0,20,1,483.63518714904785,483.63423347473145,894,1
43,control,21.0,20,1,604.1460037231445,604.1438579559326,1171,1
44,control,22.0,20,1,493.2589530944824,493.2558536529541,900,1
45,control,23.0,20,1,596.0299968719482,596.027135848999,1092,1
46,control,24.0,20,1,485.58521270751953,485.584020614624,877,1
47,control,25.0,20,1,893.6619758605957,893.6600685119629,964,1
48,control,26.0,20,1,495.76401710510254,495.7609176635742,1412,1
49,control,27.0,20,1,494.66800689697266,494.66705322265625,1216,1
50,control,28.0,20,1,495.7120418548584,495.7108497619629,922,1
51,control,29.0,20,1,497.607946395874,497.6048469543457,828,1
52,control,30.0,20,1,593.9080715179443,593.9059257507324,1232,1
53,control,5.0,17,1,98.20008277893066,396.2550163269043,1485,1
54,control,6.0,17,1,95.03006935119629,985.0571155548096,1362,1
55,control,7.0,17,1,99.0900993347168,405.9329032897949,1108,1
56,control,8.0,17,0,293.8201427459717,293.81823539733887,1281,1
57,control,9.0,17,1,98.24085235595703,493.8497543334961,983,1
58,control,10.0,17,1,938.5747909545898,938.5719299316406,1038,1
59,control,11.0,17,1,429.17490005493164,1023.4007835388184,1388,1
60,control,12.0,17,1,439.85509872436523,439.8531913757324,850,1
61,control,13.0,17,1,1026.7651081085205,1026.7620086669922,923,1
62,control,14.0,17,1,1095.3969955444336,1095.3941345214844,1289,1
63,control,15.0,23,1,991.1098480224609,991.1088943481445,917,1
64,control,16.0,17,1,992.0639991760254,992.0620918273926,1128,1
65,control,17.0,17,1,596.1930751800537,596.1909294128418,1113,1
66,control,18.0,23,1,497.2689151763916,497.26390838623047,912,1
67,control,19.0,17,1,697.0272064208984,697.0231533050537,1347,1
68,control,20.0,17,1,405.9271812438965,405.92432022094727,1281,1
69,control,21.0,17,1,499.28998947143555,499.2859363555908,1398,1
70,control,22.0,17,1,497.00307846069336,497.00093269348145,1428,1
71,control,23.0,17,1,493.5438632965088,493.541955947876,1030,1
72,control,24.0,17,1,393.0468559265137,393.04494857788086,980,1
73,control,25.0,17,1,495.24831771850586,495.24712562561035,1326,1
74,control,26.0,17,1,599.4918346405029,599.489688873291,1065,1
75,control,27.0,17,1,997.302770614624,997.2999095916748,1021,1
76,control,28.0,17,1,497.09320068359375,497.09010124206543,1109,1
77,control,29.0,17,1,498.3339309692383,498.33083152770996,1455,1
78,control,30.0,17,1,594.33913230896,594.3381786346436,1307,1
79,control,5.0,17,1,98.7708568572998,905.1907062530518,1055,1
80,control,6.0,17,1,98.4189510345459,498.64697456359863,1448,1
81,control,7.0,17,1,164.6139621734619,494.6460723876953,897,1
82,control,8.0,20,1,400.6001949310303,400.59709548950195,1107,1
83,control,9.0,17,1,398.74887466430664,398.7460136413574,889,1
84,control,10.0,17,1,384.0048313140869,384.0038776397705,836,1
85,control,11.0,17,1,1080.582857131958,1080.5819034576416,1289,1
86,control,12.0,17,1,396.6989517211914,396.6960906982422,832,1
87,control,13.0,17,1,395.3700065612793,395.3690528869629,968,1
88,control,14.0,17,1,496.326208114624,496.3240623474121,844,1
89,control,15.0,20,1,496.6251850128174,496.62208557128906,985,1
90,control,16.0,17,1,496.4280128479004,496.4251518249512,1462,1
91,control,17.0,17,1,595.721960067749,595.7210063934326,1287,1
92,control,18.0,23,1,496.859073638916,496.8559741973877,935,1
93,control,19.0,17,1,493.4821128845215,493.47901344299316,1079,1
94,control,20.0,17,1,483.66427421569824,483.66308212280273,1249,1
95,control,21.0,17,1,526.9660949707031,526.9649028778076,813,1
96,control,22.0,17,1,515.6471729278564,515.6459808349609,1310,1
97,control,23.0,17,1,1023.4770774841309,1023.4739780426025,876,1
98,control,24.0,17,1,397.7978229522705,397.7968692779541,1070,1
99,control,25.0,17,1,483.7510585784912,483.7501049041748,1355,1
100,control,26.0,17,1,483.2320213317871,483.2320213317871,1454,1
101,control,27.0,17,1,494.5499897003174,494.54808235168457,1293,1
102,control,28.0,17,1,593.5699939727783,593.5678482055664,1187,1
103,control,29.0,17,1,398.3900547027588,398.3879089355469,1217,1
104,control,30.0,17,1,495.4838752746582,495.4829216003418,1455,1
105,control,5.0,14,1,197.39484786987305,595.1619148254395,1117,1
106,control,6.0,14,1,99.66182708740234,895.0738906860352,1421,1
107,control,7.0,14,1,90.60311317443848,884.0329647064209,1318,1
108,control,8.0,20,1,398.1471061706543,495.1210021972656,1442,1
109,control,9.0,14,1,201.79510116577148,495.6400394439697,1270,1
110,control,10.0,14,1,104.09116744995117,532.1810245513916,1425,1
111,control,11.0,14,1,432.7199459075928,432.71803855895996,1223,1
112,control,12.0,14,1,404.98900413513184,404.984712600708,1348,1
113,control,13.0,14,1,395.5690860748291,395.5681324005127,1455,0
114,control,13.0,14,1,396.46005630493164,396.453857421875,1490,1
115,control,14.0,14,1,497.4792003631592,497.4782466888428,1216,1
116,control,15.0,20,1,1011.5211009979248,1011.5201473236084,1326,1
117,control,16.0,14,1,525.0699520111084,525.0687599182129,1234,1
118,control,17.0,14,1,426.53369903564453,426.5279769897461,1227,1
119,control,18.0,21,1,494.9660301208496,494.9612617492676,1175,1
120,control,19.0,14,1,494.77386474609375,494.7690963745117,1315,1
121,control,20.0,14,1,494.8389530181885,494.83799934387207,1281,1
122,control,21.0,14,1,585.3421688079834,585.3409767150879,1228,1
123,control,22.0,14,1,404.9499034881592,404.94799613952637,844,1
124,control,23.0,14,1,493.52073669433594,493.5178756713867,994,1
125,control,24.0,14,1,1485.5241775512695,1485.517978668213,987,1
126,control,25.0,14,1,2506.963014602661,2506.960153579712,1298,1
127,control,26.0,14,1,396.9380855560303,396.93593978881836,1450,1
128,control,27.0,14,1,394.0768241882324,394.075870513916,1338,1
129,control,28.0,14,1,504.4400691986084,504.4379234313965,1153,1
130,control,29.0,14,1,494.62199211120605,494.61984634399414,1010,1
131,control,30.0,14,1,394.3908214569092,394.38891410827637,1210,0
132,control,30.0,14,1,716.9861793518066,716.9840335845947,1290,1
133,control,5.0,14,1,98.05607795715332,395.05600929260254,1299,1
134,control,6.0,14,1,101.20964050292969,419.7239875793457,1001,1
135,control,7.0,14,1,99.01809692382812,503.10683250427246,1061,0
136,control,7.0,14,1,198.87423515319824,598.0291366577148,996,1
137,control,8.0,18,1,493.8681125640869,493.8671588897705,927,1
138,control,9.0,14,1,496.4609146118164,496.4578151702881,1450,1
139,control,10.0,14,1,527.350902557373,527.3489952087402,1176,1
140,control,11.0,14,1,494.37904357910156,494.37594413757324,1056,1
141,control,12.0,14,1,1023.7231254577637,1023.7209796905518,1351,1
142,control,13.0,14,1,398.70190620422363,398.7011909484863,891,1
143,control,14.0,14,1,399.3659019470215,399.36161041259766,1192,1
144,control,15.0,17,1,428.04598808288574,428.04503440856934,1333,1
145,control,16.0,14,1,497.5900650024414,497.589111328125,867,1
146,control,17.0,14,1,397.88007736206055,397.8769779205322,1234,1
147,control,18.0,21,1,396.66008949279785,396.651029586792,926,1
148,control,19.0,14,1,494.71211433410645,494.7090148925781,1350,1
149,control,20.0,14,1,923.3720302581787,923.3708381652832,965,1
150,control,21.0,14,1,431.24985694885254,431.2458038330078,1341,1
151,control,22.0,14,1,416.34082794189453,416.3401126861572,997,1
152,control,23.0,14,1,426.2959957122803,426.29408836364746,1253,1
153,control,24.0,14,1,495.84484100341797,495.84388732910156,965,1
154,control,25.0,14,1,496.9971179962158,496.9961643218994,1488,1
155,control,26.0,14,1,398.63109588623047,398.63014221191406,835,1
156,control,27.0,14,1,495.0263500213623,495.0242042541504,1411,1
157,control,28.0,14,1,895.719051361084,895.7159519195557,1360,1
158,control,29.0,14,1,524.3368148803711,524.3346691131592,837,1
159,control,30.0,14,1,395.3409194946289,395.33472061157227,958,1
160,control,5.0,11,1,98.56629371643066,495.53418159484863,1424,1
161,control,6.0,11,1,200.9129524230957,529.0439128875732,1489,1
162,control,7.0,11,1,99.84683990478516,418.0018901824951,1138,1
163,control,8.0,18,1,229.39324378967285,526.1471271514893,1391,1
164,control,9.0,11,1,923.6938953399658,923.6929416656494,1027,1
165,control,10.0,11,1,496.02293968200684,496.021032333374,1249,1
166,control,11.0,11,0,98.26087951660156,1781.1987400054932,981,1
167,control,12.0,11,1,395.3590393066406,395.3580856323242,1141,1
168,control,13.0,11,1,531.0649871826172,531.062126159668,1019,1
169,control,14.0,11,1,1027.2140502929688,1027.209997177124,1472,1
170,control,15.0,17,1,925.4519939422607,925.4500865936279,840,1
171,control,16.0,11,1,493.1762218475342,493.17312240600586,1302,1
172,control,17.0,11,1,497.0560073852539,497.04718589782715,1158,1
173,control,18.0,20,1,485.7978820800781,485.7971668243408,867,1
174,control,19.0,11,1,495.1469898223877,495.1450824737549,1184,1
175,control,20.0,11,1,585.2358341217041,585.2348804473877,1440,1
176,control,21.0,11,1,493.9548969268799,493.95203590393066,919,1
177,control,22.0,11,0,597.4910259246826,597.4888801574707,979,1
178,control,23.0,11,1,384.6278190612793,384.6268653869629,1080,1
179,control,24.0,11,1,485.05210876464844,485.05115509033203,1074,1
180,control,25.0,11,1,699.211835861206,699.2099285125732,1218,1
181,control,26.0,11,1,484.1620922088623,484.1611385345459,1049,1
182,control,27.0,11,1,492.22707748413086,492.22517013549805,1399,1
183,control,28.0,11,1,494.6160316467285,494.6150779724121,1045,1
184,control,29.0,11,1,496.2339401245117,496.2329864501953,1283,1
185,control,30.0,11,0,491.41883850097656,491.41788482666016,1333,1
186,control,5.0,11,1,99.22599792480469,395.9989547729492,1096,1
187,control,6.0,11,0,98.75607490539551,195.53613662719727,1441,1
188,control,7.0,11,1,198.5318660736084,628.0608177185059,1077,1
189,control,8.0,17,1,99.33328628540039,396.1141109466553,1229,1
190,control,9.0,11,1,493.9100742340088,493.9079284667969,1283,1
191,control,10.0,11,1,496.3371753692627,496.3340759277344,893,1
192,control,11.0,14,1,492.66815185546875,492.66505241394043,969,1
193,control,12.0,11,1,879.5089721679688,879.5080184936523,940,1
194,control,13.0,11,1,493.76797676086426,493.76583099365234,1125,1
195,control,14.0,11,1,1386.4409923553467,1386.4400386810303,1228,1
196,control,15.0,14,1,394.1769599914551,394.17314529418945,1214,1
197,control,16.0,11,1,495.14007568359375,495.13888359069824,1024,1
198,control,17.0,11,1,595.8831310272217,595.8819389343262,826,1
199,control,18.0,20,1,482.708215713501,482.70726203918457,1186,1
200,control,19.0,11,1,501.5711784362793,501.568078994751,1122,1
201,control,20.0,11,1,594.2471027374268,594.2449569702148,1302,1
202,control,21.0,11,1,493.5779571533203,493.574857711792,1000,1
203,control,22.0,14,1,504.65989112854004,504.6570301055908,1453,1
204,control,23.0,11,1,583.1060409545898,583.1050872802734,1423,1
205,control,24.0,11,1,693.7131881713867,693.7110424041748,1222,1
206,control,25.0,11,1,712.6920223236084,712.6908302307129,1340,1
207,control,26.0,11,1,526.3509750366211,526.3490676879883,1349,1
208,control,27.0,11,0,726.9399166107178,726.9346714019775,1205,1
209,control,28.0,11,1,590.864896774292,590.8617973327637,1380,1
210,control,29.0,11,1,795.5858707427979,795.5830097198486,1365,1
211,control,30.0,14,1,682.1091175079346,682.1079254150391,1490,1
212,control,5.0,8,1,692.5721168518066,692.5709247589111,1070,1
213,control,6.0,14,1,197.80778884887695,596.182107925415,1405,1
214,control,7.0,8,1,96.59385681152344,693.4187412261963,881,1
215,control,8.0,17,1,298.88272285461426,493.7469959259033,1072,1
216,control,9.0,8,1,98.18291664123535,395.56384086608887,1402,1
217,control,10.0,8,1,504.49585914611816,504.49275970458984,1444,1
218,control,11.0,14,1,194.21792030334473,496.3679313659668,877,1
219,control,12.0,8,1,502.6988983154297,502.69603729248047,1218,1
220,control,13.0,8,1,427.66785621643066,427.66499519348145,1361,1
221,control,14.0,8,1,516.0739421844482,516.0729885101318,1174,1
222,control,15.0,14,1,594.1228866577148,594.1219329833984,934,1
223,control,16.0,8,1,485.5787754058838,485.5778217315674,841,1
224,control,17.0,8,1,494.5080280303955,494.5027828216553,1187,1
225,control,18.0,18,1,484.55810546875,484.5559597015381,1382,1
226,control,19.0,8,0,593.5940742492676,593.5909748077393,1004,1
227,control,20.0,8,1,498.4550476074219,498.45337867736816,1241,1
228,control,21.0,8,1,689.8407936096191,689.8388862609863,1335,1
229,control,22.0,14,1,494.9362277984619,494.9350357055664,1036,1
230,control,23.0,8,1,692.2080516815186,692.2011375427246,1168,1
231,control,24.0,8,1,583.4376811981201,583.4367275238037,1133,1
232,control,25.0,8,1,492.7349090576172,492.7332401275635,821,1
233,control,26.0,8,1,594.0208435058594,594.0196514129639,855,1
234,control,27.0,14,1,625.0669956207275,625.0622272491455,1083,1
235,control,28.0,8,1,591.8178558349609,591.8149948120117,815,1
236,control,29.0,8,1,826.9050121307373,826.9031047821045,1388,1
237,control,30.0,14,1,2376.1279582977295,2376.1239051818848,920,1
238,control,5.0,8,1,98.04606437683105,889.4541263580322,909,1
239,control,6.0,14,1,98.0370044708252,494.143009185791,816,1
240,control,7.0,8,1,98.98900985717773,494.7950839996338,1023,1
241,control,8.0,15,1,496.2029457092285,496.1988925933838,1357,1
242,control,9.0,8,0,385.09106636047363,385.0901126861572,999,1
243,control,10.0,8,0,1879.152774810791,1879.145860671997,1204,1
244,control,11.0,12,1,505.0790309906006,505.0768852233887,1118,1
245,control,12.0,8,1,496.10424041748047,496.10209465026855,1144,1
246,control,13.0,8,1,483.9041233062744,483.9029312133789,1337,1
247,control,14.0,8,1,594.4299697875977,594.4278240203857,1386,1
248,control,15.0,11,1,891.3588523864746,891.3557529449463,1117,1
249,control,16.0,8,1,493.54100227355957,493.54004859924316,1246,1
250,control,17.0,8,1,702.1622657775879,702.160120010376,1105,1
251,control,18.0,18,1,495.3439235687256,495.3427314758301,811,1
252,control,19.0,11,1,493.6351776123047,493.63207817077637,1168,1
253,control,20.0,8,1,603.6128997802734,603.6109924316406,1387,1
254,control,21.0,8,1,496.00791931152344,496.0038661956787,1267,1
255,control,22.0,12,1,504.3201446533203,504.31323051452637,1491,1
256,control,23.0,8,0,880.4519176483154,880.450963973999,1093,1
257,control,24.0,8,1,494.9791431427002,494.9779510498047,1338,1
258,control,25.0,8,1,395.3249454498291,395.3211307525635,997,1
259,control,26.0,8,1,619.1229820251465,619.1222667694092,846,1
260,control,27.0,14,1,597.0830917358398,597.0818996429443,1344,1
261,control,28.0,8,1,626.2803077697754,626.2710094451904,852,1
262,control,29.0,8,0,626.244068145752,626.2431144714355,1365,1
263,control,30.0,12,1,504.9929618835449,504.9901008605957,1437,1
264,control,5.0,5,1,99.16305541992188,495.09310722351074,892,1
265,control,6.0,12,1,99.3199348449707,396.1520195007324,803,1
266,control,7.0,5,1,100.31700134277344,495.2409267425537,1424,1
267,control,8.0,15,1,393.359899520874,393.359899520874,1067,1
268,control,9.0,11,1,879.8918724060059,879.8909187316895,819,1
269,control,10.0,11,1,408.7400436401367,408.7369441986084,1251,1
270,control,11.0,12,1,97.95427322387695,496.7062473297119,1120,1
271,control,12.0,5,1,494.69518661499023,494.6942329406738,837,1
272,control,13.0,5,1,395.1716423034668,395.1699733734131,808,1
273,control,14.0,5,0,694.3461894989014,694.3433284759521,1016,1
274,control,15.0,11,1,494.2343235015869,494.2331314086914,979,1
275,control,16.0,5,0,1097.1858501434326,1097.1839427947998,881,1
276,control,17.0,5,0,689.5589828491211,689.551830291748,1483,1
277,control,18.0,17,1,596.4360237121582,596.4319705963135,925,1
278,control,19.0,11,1,791.2330627441406,791.2299633026123,1066,1
279,control,20.0,5,0,594.0799713134766,594.0790176391602,1222,1
280,control,21.0,5,0,486.3748550415039,486.3739013671875,973,1
281,control,22.0,12,1,485.26787757873535,485.26787757873535,1301,1
282,control,23.0,11,1,582.9098224639893,582.9088687896729,1068,1
283,control,24.0,5,0,894.1469192504883,894.1459655761719,1056,1
284,control,25.0,5,1,1693.4008598327637,1693.3910846710205,1245,1
285,control,26.0,5,0,784.9819660186768,784.9807739257812,1172,1
286,control,27.0,12,1,492.31696128845215,492.3138618469238,841,1
287,control,28.0,5,0,495.59617042541504,495.5909252166748,1133,1
288,control,29.0,11,1,493.08109283447266,493.08013916015625,1095,1
289,control,30.0,12,1,496.83690071105957,496.83308601379395,1227,1
290,control,5.0,5,1,97.9461669921875,393.82004737854004,1052,1
291,control,6.0,12,1,198.2252597808838,583.1003189086914,1191,1
292,control,7.0,5,1,100.99196434020996,502.9599666595459,1398,1
293,control,8.0,14,1,887.9318237304688,887.9299163818359,873,1
294,control,9.0,11,1,396.6028690338135,396.59976959228516,894,1
295,control,10.0,11,1,583.7960243225098,583.7950706481934,1099,1
296,control,11.0,11,1,298.018217086792,594.689130783081,1236,1
297,control,12.0,5,1,494.5180416107178,494.51422691345215,861,1
298,control,13.0,5,0,890.0628089904785,890.0618553161621,1024,1
299,control,14.0,8,1,395.74193954467773,395.7407474517822,1297,1
300,control,15.0,8,1,494.3568706512451,494.3549633026123,978,1
301,control,16.0,8,1,626.4297962188721,626.4278888702393,1449,1
302,control,17.0,8,1,625.9849071502686,625.9849071502686,814,1
303,control,18.0,17,1,625.4990100860596,625.4959106445312,1041,1
304,control,19.0,9,0,824.3923187255859,824.3911266326904,1167,1
305,control,20.0,8,1,790.6477451324463,790.6439304351807,933,1
306,control,21.0,8,1,589.9739265441895,589.9720191955566,883,1
307,control,22.0,11,1,493.67499351501465,493.6699867248535,874,1
308,control,23.0,11,1,395.5221176147461,395.5190181732178,813,1
309,control,24.0,8,0,992.3510551452637,992.3479557037354,1010,1
310,control,25.0,5,0,891.2062644958496,891.1972045898438,838,1
311,control,26.0,8,1,523.9460468292236,523.9429473876953,907,1
312,control,27.0,12,1,594.8960781097412,594.8951244354248,862,1
313,control,28.0,8,0,795.3410148620605,795.3381538391113,1449,1
314,control,29.0,11,0,3298.614978790283,3298.6130714416504,1437,1
315,control,30.0,11,0,1572.8240013122559,1572.8228092193604,1437,1
316,control,5.0,2,1,198.4879970550537,990.2520179748535,1313,1
317,control,6.0,11,1,96.75908088684082,789.2720699310303,1033,1
318,control,7.0,2,1,101.01914405822754,592.3471450805664,1170,1
319,control,8.0,14,1,1814.925193786621,1814.9209022521973,1386,1
320,control,9.0,9,1,97.56112098693848,393.60785484313965,1460,1
321,control,10.0,9,1,493.2670593261719,493.26515197753906,1480,1
322,control,11.0,11,1,395.43771743774414,395.4355716705322,1189,1
323,control,12.0,2,0,721.8780517578125,721.8732833862305,1241,1
324,control,13.0,8,1,395.2348232269287,395.2336311340332,1229,1
325,control,14.0,8,1,594.423770904541,594.4147109985352,905,1
326,control,15.0,8,1,484.9889278411865,484.9879741668701,1112,1
327,control,16.0,8,1,493.0880069732666,493.0858612060547,904,1
328,control,17.0,8,1,595.5398082733154,595.5348014831543,815,1
329,control,18.0,15,1,922.738790512085,922.7347373962402,1401,1
330,control,19.0,11,1,604.1469573974609,604.140043258667,1115,1
331,control,20.0,8,1,583.6572647094727,583.6563110351562,962,1
332,control,21.0,8,1,594.3899154663086,594.386100769043,1475,1
333,control,22.0,11,1,592.1430587768555,592.1411514282227,1200,1
334,control,23.0,9,1,702.9778957366943,702.9738426208496,1305,1
335,control,24.0,11,0,1912.7469062805176,1912.7438068389893,1291,1
336,control,25.0,8,0,897.6881504058838,897.6850509643555,931,1
337,control,26.0,8,0,1575.2809047698975,1575.2792358398438,1235,1
338,control,27.0,11,1,900.8400440216064,900.8369445800781,874,1
339,control,28.0,11,1,1119.940996170044,1119.9390888214111,1411,1
340,control,29.0,12,1,592.8828716278076,592.8809642791748,916,1
341,control,30.0,12,1,494.34614181518555,494.34399604797363,1450,1
342,control,5.0,2,1,97.87130355834961,781.1970710754395,1381,1
343,control,6.0,11,1,99.31302070617676,426.8171787261963,1237,1
344,control,7.0,2,0,923.50172996521,923.4979152679443,1007,1
345,control,8.0,12,1,99.49398040771484,485.6259822845459,1130,1
346,control,9.0,9,1,99.08080101013184,492.97285079956055,1147,1
347,control,10.0,9,1,496.1888790130615,496.1819648742676,803,1
348,control,11.0,9,1,206.13718032836914,1492.570161819458,1223,1
349,control,12.0,5,0,1386.8989944458008,1386.8978023529053,1364,1
350,control,13.0,8,1,495.38683891296387,495.38612365722656,841,1
351,control,14.0,6,1,495.1059818267822,495.1050281524658,1054,1
352,control,15.0,5,1,593.0140018463135,593.0101871490479,1480,1
353,control,16.0,6,1,593.9147472381592,593.9128398895264,1277,1
354,control,17.0,6,0,693.6030387878418,693.6008930206299,1008,1
355,control,18.0,15,1,493.5879707336426,493.5870170593262,1295,1
356,control,19.0,11,1,591.7911529541016,591.7890071868896,1017,1
357,control,20.0,6,1,582.0040702819824,582.0028781890869,934,1
358,control,21.0,6,0,690.6158924102783,690.6111240386963,922,1
359,control,22.0,9,1,703.2570838928223,703.2549381256104,1463,1
360,control,23.0,9,1,699.9650001525879,699.955940246582,1187,1
361,control,24.0,14,1,682.426929473877,682.4259757995605,1388,1
362,control,25.0,11,1,693.4430599212646,693.4409141540527,1119,1
363,control,26.0,9,1,492.0830726623535,492.0790195465088,1491,1
364,control,27.0,11,1,684.1731071472168,684.1721534729004,806,1
365,control,28.0,11,1,595.3290462493896,595.3259468078613,1301,1
366,control,29.0,12,1,626.2173652648926,626.2164115905762,1110,1
367,control,30.0,12,1,494.8720932006836,494.8711395263672,914,1
368,control,5.0,1,0,100.37684440612793,497.79200553894043,1253,1
369,control,6.0,9,1,198.53711128234863,595.7980155944824,1293,1
370,control,7.0,5,1,496.2728023529053,496.2658882141113,1452,1
371,control,8.0,12,1,409.060001373291,409.0578556060791,1459,1
372,control,9.0,8,1,195.74379920959473,889.6279335021973,1467,1
373,control,10.0,8,1,504.702091217041,504.69303131103516,1257,1
374,control,11.0,9,1,536.9038581848145,536.8928909301758,827,1
375,control,12.0,8,1,493.5741424560547,493.5722351074219,1035,1
376,control,13.0,6,0,805.2632808685303,805.2611351013184,1378,1
377,control,14.0,6,1,593.4820175170898,593.4820175170898,950,1
378,control,15.0,5,1,592.8831100463867,592.879056930542,1002,1
379,control,16.0,6,1,386.52586936950684,386.52491569519043,1191,1
380,control,17.0,8,0,594.3868160247803,594.3789482116699,1179,1
381,control,18.0,14,1,635.4379653930664,635.4360580444336,1041,1
382,control,19.0,10,1,800.969123840332,800.9660243988037,1216,1
383,control,20.0,6,0,888.9498710632324,888.9467716217041,1194,1
384,control,21.0,8,1,1884.840965270996,1884.8369121551514,1114,1
385,control,22.0,9,1,593.7700271606445,593.7690734863281,949,1
386,control,23.0,8,1,500.9770393371582,500.974178314209,1375,1
387,control,24.0,14,1,592.4460887908936,592.4441814422607,810,1
388,control,25.0,11,1,494.91405487060547,494.91405487060547,1428,1
389,control,26.0,9,1,626.7518997192383,626.7499923706055,1186,1
390,control,27.0,9,0,734.7569465637207,734.7562313079834,977,1
391,control,28.0,9,1,690.1741027832031,690.1650428771973,1196,1
392,control,29.0,11,0,503.22937965393066,503.22628021240234,1477,1
393,control,30.0,11,0,725.8660793304443,725.8651256561279,989,1
1,quadbright,5.0,20,1,200.23012161254883,598.7472534179688,1052,1
2,quadbright,6.0,20,1,98.57797622680664,490.60988426208496,848,1
3,quadbright,7.0,20,1,232.3310375213623,528.9959907531738,843,1
4,quadbright,8.0,20,1,518.9540386199951,518.9528465270996,1176,1
5,quadbright,9.0,20,1,483.795166015625,483.7942123413086,1068,1
6,quadbright,10.0,20,1,999.8011589050293,999.798059463501,1393,1
7,quadbright,11.0,20,1,495.0878620147705,495.08094787597656,1050,1
8,quadbright,12.0,20,1,606.8899631500244,606.8859100341797,979,1
9,quadbright,13.0,20,1,892.9028511047363,892.9018974304199,1194,1
10,quadbright,14.0,20,1,496.69766426086426,496.6897964477539,1073,1
11,quadbright,15.0,20,1,597.5358486175537,597.5339412689209,1204,1
12,quadbright,16.0,20,1,502.90989875793457,502.90799140930176,1421,1
13,quadbright,17.0,20,1,397.5551128387451,397.5539207458496,1181,1
14,quadbright,18.0,20,1,384.80520248413086,384.80424880981445,989,1
15,quadbright,19.0,20,1,530.1761627197266,530.1742553710938,1396,1
16,quadbright,20.0,20,0,296.1082458496094,296.10705375671387,1130,1
17,quadbright,21.0,20,1,494.45605278015137,494.45486068725586,884,1
18,quadbright,22.0,20,1,394.5579528808594,394.55199241638184,995,1
19,quadbright,23.0,20,1,483.60300064086914,483.60204696655273,1298,1
20,quadbright,24.0,20,1,496.68192863464355,496.68002128601074,1452,1
21,quadbright,25.0,20,1,1011.7831230163574,1011.7809772491455,855,1
22,quadbright,26.0,20,1,197.74794578552246,879.6889781951904,1120,1
23,quadbright,27.0,20,1,597.334623336792,597.334623336792,1118,1
24,quadbright,28.0,20,1,584.8548412322998,584.8538875579834,1214,1
25,quadbright,29.0,20,1,501.59692764282227,501.59502029418945,1439,1
26,quadbright,30.0,20,1,491.9931888580322,491.9910430908203,1434,1
27,quadbright,5.0,20,0,99.56097602844238,497.6661205291748,1131,1
28,quadbright,6.0,20,1,100.73232650756836,495.06425857543945,1160,1
29,quadbright,7.0,20,1,100.40807723999023,497.1959590911865,1093,1
30,quadbright,8.0,20,1,98.84810447692871,901.494026184082,1352,1
31,quadbright,9.0,20,1,998.9068508148193,998.9039897918701,1123,1
32,quadbright,10.0,20,1,494.07100677490234,494.07005310058594,1297,1
33,quadbright,11.0,20,1,397.8898525238037,890.4378414154053,851,1
34,quadbright,12.0,20,1,495.7449436187744,495.7420825958252,1267,1
35,quadbright,13.0,20,1,393.8581943511963,393.85509490966797,944,1
36,quadbright,14.0,20,1,780.6859016418457,780.6847095489502,1395,1
37,quadbright,15.0,20,1,494.0662384033203,494.063138961792,804,1
38,quadbright,16.0,20,1,616.447925567627,616.4469718933105,1324,1
39,quadbright,17.0,20,1,526.6749858856201,526.6718864440918,1285,1
40,quadbright,18.0,20,1,397.64928817749023,397.6480960845947,908,1
41,quadbright,19.0,20,1,508.5780620574951,508.5742473602295,1221,1
42,quadbright,20.0,23,1,495.4571723937988,495.4519271850586,1174,1
43,quadbright,21.0,20,1,890.3360366821289,890.3350830078125,1222,1
44,quadbright,22.0,20,1,396.01778984069824,396.01683616638184,1007,1
45,quadbright,23.0,20,1,493.29614639282227,493.29304695129395,914,1
46,quadbright,24.0,20,1,495.12791633605957,495.12696266174316,1379,1
47,quadbright,25.0,20,1,493.8826560974121,493.8826560974121,1350,1
48,quadbright,26.0,20,0,399.1279602050781,399.1248607635498,1323,1
49,quadbright,27.0,20,1,696.7589855194092,696.7580318450928,1220,1
50,quadbright,28.0,20,1,525.5029201507568,525.4998207092285,1015,1
51,quadbright,29.0,20,1,537.2359752655029,537.2350215911865,1054,1
52,quadbright,30.0,20,1,714.6289348602295,714.6282196044922,1322,1
53,quadbright,5.0,23,1,196.36774063110352,426.12600326538086,925,1
54,quadbright,6.0,17,1,198.28391075134277,496.6399669647217,1240,1
55,quadbright,7.0,17,1,100.24094581604004,493.5438632965088,945,1
56,quadbright,8.0,17,1,395.68400382995605,395.6799507141113,1474,1
57,quadbright,9.0,17,1,426.9719123840332,426.9700050354004,1173,1
58,quadbright,10.0,17,1,527.763843536377,527.7628898620605,875,1
59,quadbright,11.0,17,1,588.9079570770264,588.9050960540771,803,1
60,quadbright,12.0,17,1,587.7299308776855,587.7280235290527,1208,1
61,quadbright,13.0,17,1,495.29099464416504,495.29004096984863,836,1
62,quadbright,14.0,17,1,486.9539737701416,486.9530200958252,1017,1
63,quadbright,15.0,17,1,582.3190212249756,582.3171138763428,1119,1
64,quadbright,16.0,17,1,493.95203590393066,493.94893646240234,1301,1
65,quadbright,17.0,17,1,493.8492774963379,493.8480854034424,1427,1
66,quadbright,18.0,17,1,593.2228565216064,593.2209491729736,1499,1
67,quadbright,19.0,17,1,541.1498546600342,541.146993637085,1464,1
68,quadbright,20.0,23,1,532.0568084716797,532.0537090301514,1113,1
69,quadbright,21.0,17,1,595.2649116516113,595.2630043029785,1318,1
70,quadbright,22.0,17,1,497.53808975219727,497.53499031066895,983,1
71,quadbright,23.0,17,1,397.07493782043457,397.07207679748535,1020,1
72,quadbright,24.0,17,1,398.637056350708,398.6349105834961,1163,1
73,quadbright,25.0,17,1,1033.2059860229492,1033.203125,965,1
74,quadbright,26.0,23,1,900.510311126709,900.5072116851807,1298,1
75,quadbright,27.0,17,1,293.6398983001709,293.6379909515381,1408,1
76,quadbright,28.0,17,1,494.77505683898926,494.77410316467285,1441,1
77,quadbright,29.0,17,1,484.8921298980713,484.8911762237549,1257,1
78,quadbright,30.0,17,0,503.41105461120605,503.4070014953613,910,1
79,quadbright,5.0,23,1,98.96969795227051,397.6917266845703,1437,1
80,quadbright,6.0,17,1,99.16996955871582,893.3060169219971,1091,1
81,quadbright,7.0,17,1,94.13003921508789,482.7589988708496,1369,1
82,quadbright,8.0,17,1,608.7338924407959,608.7300777435303,1242,1
83,quadbright,9.0,17,1,96.10176086425781,496.16098403930664,1289,1
84,quadbright,10.0,17,1,395.5960273742676,395.59483528137207,1458,1
85,quadbright,11.0,17,1,394.31285858154297,394.31095123291016,1284,1
86,quadbright,12.0,17,1,495.2220916748047,495.2211380004883,1037,1
87,quadbright,13.0,17,1,591.8319225311279,591.8300151824951,1481,1
88,quadbright,14.0,17,1,494.9302673339844,494.92597579956055,932,1
89,quadbright,15.0,17,1,793.3549880981445,793.3399677276611,1012,1
90,quadbright,16.0,17,1,397.9158401489258,397.9151248931885,1373,1
91,quadbright,17.0,17,1,592.6661491394043,592.6609039306641,1340,1
92,quadbright,18.0,17,1,597.1248149871826,597.1219539642334,1223,1
93,quadbright,19.0,17,1,1474.6160507202148,1474.614143371582,1342,1
94,quadbright,20.0,20,1,387.15600967407227,387.15505599975586,1250,1
95,quadbright,21.0,17,1,394.4408893585205,394.4368362426758,1292,1
96,quadbright,22.0,17,1,713.2229804992676,713.2220268249512,1202,1
97,quadbright,23.0,17,1,616.1239147186279,616.1222457885742,1237,1
98,quadbright,24.0,17,1,428.46083641052246,428.45988273620605,1009,1
99,quadbright,25.0,17,1,494.3253993988037,494.3222999572754,1127,1
100,quadbright,26.0,23,0,2604.706048965454,2604.6929359436035,1446,1
101,quadbright,27.0,17,0,3057.5671195983887,3057.5661659240723,1475,1
102,quadbright,28.0,17,1,494.58909034729004,494.5790767669678,1352,1
103,quadbright,29.0,17,1,624.798059463501,624.793291091919,1197,1
104,quadbright,30.0,20,1,890.526294708252,890.5179500579834,920,1
105,quadbright,5.0,21,1,99.23481941223145,594.2449569702148,1150,1
106,quadbright,6.0,14,1,100.48580169677734,495.424747467041,1396,1
107,quadbright,7.0,14,1,201.0490894317627,526.5181064605713,851,1
108,quadbright,8.0,14,1,99.04193878173828,494.0152168273926,1435,1
109,quadbright,9.0,14,1,395.86806297302246,395.86687088012695,1034,1
110,quadbright,10.0,14,1,297.46413230895996,596.466064453125,1208,1
111,quadbright,11.0,14,1,584.7971439361572,584.7961902618408,1396,1
112,quadbright,12.0,14,1,602.8227806091309,602.8201580047607,1013,1
113,quadbright,13.0,14,1,484.7428798675537,484.7419261932373,1393,1
114,quadbright,14.0,14,1,397.9330062866211,397.92513847351074,1140,1
115,quadbright,15.0,14,1,329.67090606689453,329.669713973999,940,1
116,quadbright,16.0,14,1,441.6787624359131,441.6778087615967,1069,1
117,quadbright,17.0,14,1,926.7518520355225,926.7499446868896,1358,1
118,quadbright,18.0,14,1,692.97194480896,692.9688453674316,1155,1
119,quadbright,19.0,14,1,495.7010746002197,495.6989288330078,1353,1
120,quadbright,20.0,20,1,505.32984733581543,505.3281784057617,1176,1
121,quadbright,21.0,14,1,493.84236335754395,493.8371181488037,1329,1
122,quadbright,22.0,14,1,591.9010639190674,591.8991565704346,1317,1
123,quadbright,23.0,14,1,492.63715744018555,492.63501167297363,904,1
124,quadbright,24.0,14,1,494.2920207977295,494.2910671234131,880,1
125,quadbright,25.0,14,1,491.96791648864746,491.96600914001465,1325,1
126,quadbright,26.0,24,0,2023.9810943603516,2023.9779949188232,995,1
127,quadbright,27.0,20,1,589.4989967346191,589.4968509674072,1239,1
128,quadbright,28.0,14,1,495.1951503753662,495.1939582824707,1006,1
129,quadbright,29.0,14,1,1022.9499340057373,1022.9461193084717,1023,1
130,quadbright,30.0,20,1,407.4428081512451,407.4397087097168,1390,1
131,quadbright,5.0,21,1,98.20890426635742,493.776798248291,1017,1
132,quadbright,6.0,14,1,98.26302528381348,386.00802421569824,1039,1
133,quadbright,7.0,14,1,397.77183532714844,397.7689743041992,853,1
134,quadbright,8.0,14,1,397.59206771850586,397.59087562561035,803,1
135,quadbright,9.0,14,1,494.9603080749512,494.95720863342285,1437,1
136,quadbright,10.0,14,1,524.7149467468262,524.7108936309814,1031,1
137,quadbright,11.0,14,1,838.3612632751465,838.3569717407227,1195,1
138,quadbright,12.0,14,1,425.4341125488281,425.4279136657715,1233,1
139,quadbright,13.0,14,1,496.44017219543457,496.43611907958984,927,1
140,quadbright,14.0,14,1,493.9768314361572,493.9708709716797,1061,1
141,quadbright,15.0,14,1,495.61619758605957,495.61500549316406,1307,1
142,quadbright,16.0,14,1,502.8948783874512,502.89201736450195,1405,1
143,quadbright,17.0,14,1,484.7848415374756,484.7838878631592,1063,1
144,quadbright,18.0,14,1,507.08818435668945,507.0841312408447,1445,1
145,quadbright,19.0,14,1,793.7867641448975,793.7839031219482,985,1
146,quadbright,20.0,17,1,1617.9687976837158,1617.9678440093994,806,1
147,quadbright,21.0,14,1,921.2400913238525,921.2381839752197,1334,1
148,quadbright,22.0,14,1,728.1849384307861,728.1808853149414,808,1
149,quadbright,23.0,14,1,727.2818088531494,727.2796630859375,1233,1
150,quadbright,24.0,14,1,427.99830436706543,427.997350692749,1251,1
151,quadbright,25.0,14,1,529.8120975494385,529.8078060150146,1454,1
152,quadbright,26.0,26,1,527.4302959442139,527.4291038513184,1411,1
153,quadbright,27.0,20,1,495.7277774810791,495.7268238067627,935,1
154,quadbright,28.0,14,1,614.2439842224121,614.2439842224121,1472,1
155,quadbright,29.0,14,0,703.671932220459,703.6690711975098,1276,1
156,quadbright,30.0,18,1,527.5578498840332,527.5559425354004,814,1
157,quadbright,5.0,20,1,198.18902015686035,627.2838115692139,1182,1
158,quadbright,6.0,11,1,99.12395477294922,593.6679840087891,1066,1
159,quadbright,7.0,11,1,495.2719211578369,495.2709674835205,1351,1
160,quadbright,8.0,11,1,97.68891334533691,399.60789680480957,1481,1
161,quadbright,9.0,11,1,436.56396865844727,436.5570545196533,971,1
162,quadbright,10.0,11,1,493.30997467041016,493.30782890319824,1216,0
163,quadbright,10.0,11,1,392.4829959869385,392.47894287109375,1449,1
164,quadbright,11.0,11,1,594.1927433013916,594.1917896270752,1286,1
165,quadbright,12.0,11,1,396.6231346130371,396.6209888458252,1489,1
166,quadbright,13.0,11,1,399.80101585388184,399.7979164123535,1462,1
167,quadbright,14.0,11,1,496.5379238128662,496.5372085571289,1446,1
168,quadbright,15.0,11,1,527.3468494415283,527.3458957672119,1272,1
169,quadbright,16.0,11,1,725.611686706543,725.6107330322266,1438,1
170,quadbright,17.0,11,1,504.09698486328125,504.09507751464844,1063,1
171,quadbright,18.0,11,0,901.3869762420654,901.3841152191162,1459,1
172,quadbright,19.0,11,1,790.7392978668213,790.734052658081,1047,1
173,quadbright,20.0,17,1,482.91611671447754,482.91492462158203,985,1
174,quadbright,21.0,11,1,791.7819023132324,791.7766571044922,1005,1
175,quadbright,22.0,11,1,694.1068172454834,694.1049098968506,1087,1
176,quadbright,23.0,11,1,789.6668910980225,789.6649837493896,1152,1
177,quadbright,24.0,11,1,495.1460361480713,495.1438903808594,1378,1
178,quadbright,25.0,11,1,591.4862155914307,591.4821624755859,978,1
179,quadbright,26.0,26,1,495.52297592163086,495.51987648010254,994,1
180,quadbright,27.0,18,1,484.0092658996582,484.0083122253418,1479,1
181,quadbright,28.0,11,1,398.2529640197754,398.2501029968262,1143,1
182,quadbright,29.0,17,1,499.417781829834,499.4158744812012,1000,1
183,quadbright,30.0,18,1,696.152925491333,696.1507797241211,976,1
184,quadbright,5.0,20,1,98.94394874572754,395.1709270477295,1149,1
185,quadbright,6.0,11,1,97.71180152893066,494.23694610595703,1454,1
186,quadbright,7.0,11,1,99.93696212768555,397.676944732666,873,1
187,quadbright,8.0,11,1,496.48499488830566,496.48380279541016,1491,1
188,quadbright,9.0,11,1,98.82283210754395,399.2462158203125,1456,1
189,quadbright,10.0,11,1,593.2400226593018,593.238115310669,824,1
190,quadbright,11.0,11,1,493.71957778930664,493.71886253356934,1224,1
191,quadbright,12.0,11,1,594.3307876586914,594.3269729614258,1350,1
192,quadbright,13.0,11,1,427.5510311126709,427.5472164154053,819,1
193,quadbright,14.0,11,1,1030.3561687469482,1030.35306930542,1052,1
194,quadbright,15.0,11,1,727.6129722595215,727.6110649108887,1421,1
195,quadbright,16.0,11,1,691.2510395050049,691.2481784820557,995,1
196,quadbright,17.0,11,1,493.3919906616211,493.38603019714355,925,1
197,quadbright,18.0,14,1,427.38795280456543,427.386999130249,938,1
198,quadbright,19.0,11,0,692.1260356903076,692.1191215515137,1281,1
199,quadbright,20.0,14,1,426.6939163208008,426.6858100891113,818,1
200,quadbright,21.0,11,1,624.1018772125244,624.100923538208,1261,1
201,quadbright,22.0,11,1,493.86072158813477,493.8549995422363,1373,1
202,quadbright,23.0,11,1,593.40500831604,593.4038162231445,1134,1
203,quadbright,24.0,11,1,891.5741443634033,891.5729522705078,1375,1
204,quadbright,25.0,11,1,685.5800151824951,685.5788230895996,1176,1
205,quadbright,26.0,25,1,534.9607467651367,534.95192527771,1400,1
206,quadbright,27.0,18,1,424.41821098327637,424.41320419311523,1499,1
207,quadbright,28.0,11,1,427.868127822876,427.86383628845215,1135,1
208,quadbright,29.0,17,1,1021.7022895812988,1021.6970443725586,1432,1
209,quadbright,30.0,17,1,429.86583709716797,429.86488342285156,1110,1
210,quadbright,5.0,18,1,98.75893592834473,525.8691310882568,1435,1
211,quadbright,6.0,8,1,200.46305656433105,595.0970649719238,1209,1
212,quadbright,7.0,8,1,99.5016098022461,923.8929748535156,1383,1
213,quadbright,8.0,8,1,98.59991073608398,493.941068649292,1187,1
214,quadbright,9.0,8,0,99.1201400756836,302.8411865234375,1168,1
215,quadbright,10.0,8,1,494.4031238555908,494.401216506958,1246,1
216,quadbright,11.0,8,1,595.9930419921875,595.9877967834473,860,1
217,quadbright,12.0,8,1,197.4949836730957,900.7511138916016,1399,1
218,quadbright,13.0,8,0,802.3531436920166,802.3433685302734,1070,1
219,quadbright,14.0,8,1,583.8241577148438,583.8232040405273,886,1
220,quadbright,15.0,8,1,890.0818824768066,890.0740146636963,830,1
221,quadbright,16.0,8,0,782.8190326690674,782.818078994751,1049,1
222,quadbright,17.0,8,0,780.8630466461182,780.8620929718018,948,1
223,quadbright,18.0,14,1,1672.4910736083984,1672.490119934082,1426,1
224,quadbright,19.0,14,1,494.37689781188965,494.3699836730957,1491,1
225,quadbright,20.0,14,1,492.98810958862305,492.9831027984619,1344,1
226,quadbright,21.0,8,1,797.6279258728027,797.6219654083252,978,1
227,quadbright,22.0,8,1,682.9056739807129,682.9047203063965,947,1
228,quadbright,23.0,8,1,792.2501564025879,792.2482490539551,1024,1
229,quadbright,24.0,8,0,923.9931106567383,923.987865447998,968,1
230,quadbright,25.0,8,0,724.834680557251,724.8339653015137,1093,1
231,quadbright,26.0,25,1,591.5389060974121,591.5372371673584,902,1
232,quadbright,27.0,17,1,703.5279273986816,703.5257816314697,1414,1
233,quadbright,28.0,8,0,681.8912029266357,681.8900108337402,896,1
234,quadbright,29.0,15,1,584.9151611328125,584.913969039917,1433,1
235,quadbright,30.0,17,1,890.4309272766113,890.4261589050293,1044,1
236,quadbright,5.0,18,1,103.73878479003906,494.4310188293457,1013,1
237,quadbright,6.0,8,1,198.02427291870117,592.3891067504883,1273,1
238,quadbright,7.0,8,1,100.74305534362793,501.0960102081299,1364,1
239,quadbright,8.0,8,1,98.3579158782959,492.3231601715088,1261,1
240,quadbright,9.0,11,1,99.82800483703613,397.07183837890625,1402,1
241,quadbright,10.0,8,1,494.5981502532959,494.5971965789795,1158,1
242,quadbright,11.0,8,1,679.6107292175293,679.6097755432129,824,1
243,quadbright,12.0,8,1,493.3440685272217,493.34120750427246,1032,1
244,quadbright,13.0,11,1,494.51375007629395,494.5058822631836,1417,1
245,quadbright,14.0,8,0,714.7870063781738,714.7860527038574,1413,1
246,quadbright,15.0,8,1,425.24170875549316,425.23694038391113,1218,1
247,quadbright,16.0,11,1,593.2121276855469,593.203067779541,1214,1
248,quadbright,17.0,11,1,595.2098369598389,595.2067375183105,1146,1
249,quadbright,18.0,12,1,483.0911159515381,483.08825492858887,897,1
250,quadbright,19.0,14,1,492.9189682006836,492.91300773620605,893,1
251,quadbright,20.0,11,1,682.9571723937988,682.9559803009033,1088,1
252,quadbright,21.0,8,0,631.5560340881348,631.5469741821289,1059,1
253,quadbright,22.0,8,1,594.6869850158691,594.6860313415527,1478,1
254,quadbright,23.0,8,1,495.0888156890869,495.0840473175049,1123,1
255,quadbright,24.0,11,1,484.47179794311523,484.4708442687988,1216,1
256,quadbright,25.0,11,0,602.8878688812256,602.8861999511719,1030,1
257,quadbright,26.0,24,1,592.0650959014893,592.0619964599609,1010,1
258,quadbright,27.0,17,0,806.2798976898193,806.2770366668701,1408,1
259,quadbright,28.0,11,1,601.7191410064697,601.7169952392578,963,1
260,quadbright,29.0,15,1,493.67713928222656,493.6671257019043,1105,1
261,quadbright,30.0,15,1,881.580114364624,881.580114364624,800,1
262,quadbright,5.0,17,1,197.58296012878418,593.2297706604004,1382,1
263,quadbright,6.0,5,1,100.58379173278809,404.85095977783203,1460,1
264,quadbright,7.0,5,1,791.038990020752,791.0289764404297,1437,1
265,quadbright,8.0,5,0,98.61993789672852,768.930196762085,1469,1
266,quadbright,9.0,11,1,200.55294036865234,594.994306564331,1389,1
267,quadbright,10.0,5,1,890.1019096374512,890.0978565216064,1005,1
268,quadbright,11.0,5,1,700.3347873687744,700.3309726715088,875,1
269,quadbright,12.0,5,1,492.664098739624,492.6609992980957,1255,1
270,quadbright,13.0,11,0,492.8088188171387,492.80691146850586,1343,1
271,quadbright,14.0,11,1,593.914270401001,593.9121246337891,1188,1
272,quadbright,15.0,5,0,822.6361274719238,822.6339817047119,939,1
273,quadbright,16.0,11,1,494.9760437011719,494.97509002685547,905,1
274,quadbright,17.0,11,1,581.7530155181885,581.7511081695557,836,1
275,quadbright,18.0,12,1,493.588924407959,493.5870170593262,1335,1
276,quadbright,19.0,12,0,594.9649810791016,594.9623584747314,1324,1
277,quadbright,20.0,11,1,636.1358165740967,636.1339092254639,1164,1
278,quadbright,21.0,11,1,494.661808013916,494.6608543395996,1395,1
279,quadbright,22.0,5,0,524.8448848724365,524.8398780822754,1093,1
280,quadbright,23.0,5,0,494.74620819091797,494.74620819091797,1488,1
281,quadbright,24.0,11,1,493.21603775024414,493.2119846343994,1198,1
282,quadbright,25.0,14,1,722.7623462677002,722.7582931518555,897,1
283,quadbright,26.0,24,1,625.7719993591309,625.7710456848145,1070,1
284,quadbright,27.0,18,1,493.4091567993164,493.4070110321045,1115,1
285,quadbright,28.0,11,1,394.4680690765381,394.46282386779785,1086,1
286,quadbright,29.0,14,1,494.8441982269287,494.8420524597168,1428,1
287,quadbright,30.0,15,1,593.8239097595215,593.8229560852051,1444,1
288,quadbright,5.0,17,1,198.5611915588379,583.2030773162842,1259,1
289,quadbright,6.0,5,1,98.86312484741211,494.39191818237305,892,1
290,quadbright,7.0,5,1,98.33979606628418,492.4187660217285,1271,1
291,quadbright,8.0,8,1,494.3239688873291,494.31872367858887,1108,1
292,quadbright,9.0,9,1,493.1490421295166,493.1459426879883,817,1
293,quadbright,10.0,5,0,891.0388946533203,891.0360336303711,1198,1
294,quadbright,11.0,5,0,792.3688888549805,792.3638820648193,1273,1
295,quadbright,12.0,5,0,98.7389087677002,494.1718578338623,842,1
296,quadbright,13.0,12,1,596.5359210968018,596.5311527252197,1402,1
297,quadbright,14.0,11,1,428.333044052124,428.3318519592285,871,1
298,quadbright,15.0,8,1,626.3949871063232,626.3911724090576,1280,1
299,quadbright,16.0,9,0,703.4838199615479,703.4671306610107,809,1
300,quadbright,17.0,9,0,504.03523445129395,504.03308868408203,1484,1
301,quadbright,18.0,11,1,493.2682514190674,493.26395988464355,1129,1
302,quadbright,19.0,14,1,494.6420192718506,494.6398735046387,1224,1
303,quadbright,20.0,8,0,494.26722526550293,494.2641258239746,1236,1
304,quadbright,21.0,11,0,888.1940841674805,888.1909847259521,848,1
305,quadbright,22.0,8,0,194.627046585083,1318.2621002197266,965,1
306,quadbright,23.0,8,1,723.1941223144531,723.1888771057129,1338,1
307,quadbright,24.0,9,0,791.024923324585,791.0230159759521,887,1
308,quadbright,25.0,14,1,693.756103515625,693.7551498413086,1075,1
309,quadbright,26.0,23,1,594.8066711425781,594.7988033294678,1039,1
310,quadbright,27.0,18,1,396.23188972473145,396.22998237609863,820,1
311,quadbright,28.0,9,1,525.5091190338135,525.4981517791748,955,1
312,quadbright,29.0,14,1,495.76711654663086,495.76616287231445,837,1
313,quadbright,30.0,14,1,395.219087600708,395.2171802520752,820,1
314,quadbright,5.0,15,1,191.12515449523926,385.242223739624,1437,1
315,quadbright,6.0,2,1,99.60079193115234,591.2277698516846,1334,1
316,quadbright,7.0,2,0,95.60084342956543,720.952033996582,837,1
317,quadbright,8.0,8,1,402.7090072631836,402.70280838012695,987,1
318,quadbright,9.0,9,1,596.531867980957,596.5280532836914,1361,1
319,quadbright,10.0,8,1,405.8659076690674,405.8642387390137,803,1
320,quadbright,11.0,8,1,503.30495834350586,503.30209732055664,1202,1
321,quadbright,12.0,8,1,494.54188346862793,494.5406913757324,1158,1
322,quadbright,13.0,12,1,494.5840835571289,494.5809841156006,1434,1
323,quadbright,14.0,9,1,601.4199256896973,601.4120578765869,864,1
324,quadbright,15.0,8,1,1283.0967903137207,1283.0920219421387,1277,1
325,quadbright,16.0,11,0,699.9402046203613,699.937105178833,1180,1
326,quadbright,17.0,11,0,1318.687915802002,1318.6862468719482,914,1
327,quadbright,18.0,11,0,987.9698753356934,987.9660606384277,1018,1
328,quadbright,19.0,14,1,697.2410678863525,697.2391605377197,1101,0
329,quadbright,19.0,14,1,491.8200969696045,491.8179512023926,1037,1
330,quadbright,20.0,11,1,437.6859664916992,437.6847743988037,1043,1
331,quadbright,21.0,12,0,294.8951721191406,294.888973236084,1291,1
332,quadbright,22.0,11,1,493.9718246459961,493.96586418151855,1267,1
333,quadbright,23.0,8,1,525.9180068969727,525.9099006652832,1021,1
334,quadbright,24.0,11,1,814.201831817627,814.2008781433105,1059,1
335,quadbright,25.0,12,0,527.728796005249,527.7278423309326,1241,1
336,quadbright,26.0,23,0,427.17695236206055,427.17528343200684,1151,1
337,quadbright,27.0,17,1,491.59717559814453,491.5900230407715,1237,1
338,quadbright,28.0,9,0,889.7778987884521,889.7719383239746,834,1
339,quadbright,29.0,12,1,800.684928894043,800.6808757781982,1082,0
340,quadbright,29.0,12,1,591.2277698516846,591.2246704101562,1061,1
341,quadbright,30.0,14,0,594.6450233459473,594.6428775787354,1304,1
342,quadbright,5.0,15,1,99.40505027770996,498.34179878234863,1310,1
343,quadbright,6.0,2,0,99.4718074798584,493.1321144104004,888,1
344,quadbright,7.0,5,1,493.955135345459,493.95298957824707,1400,1
345,quadbright,8.0,6,1,98.02389144897461,782.1128368377686,1461,1
346,quadbright,9.0,8,1,493.6399459838867,493.6339855194092,1087,1
347,quadbright,10.0,8,1,426.39684677124023,426.3958930969238,815,1
348,quadbright,11.0,8,0,722.5921154022217,722.5801944732666,1135,1
349,quadbright,12.0,8,1,790.560245513916,790.5580997467041,1045,1
350,quadbright,13.0,11,0,494.13514137268066,494.12989616394043,1157,1
351,quadbright,14.0,9,1,891.9410705566406,891.9379711151123,1131,1
352,quadbright,15.0,6,1,693.551778793335,693.5501098632812,833,1
353,quadbright,16.0,12,1,494.8129653930664,494.8129653930664,1371,1
354,quadbright,17.0,12,1,493.9751625061035,493.9720630645752,1359,1
355,quadbright,18.0,12,1,596.7369079589844,596.735954284668,1326,1
356,quadbright,19.0,13,1,526.1104106903076,526.1032581329346,830,1
357,quadbright,20.0,11,0,714.1659259796143,714.1649723052979,1462,1
358,quadbright,21.0,14,1,702.629804611206,702.6228904724121,1421,1
359,quadbright,22.0,11,1,625.2889633178711,625.2861022949219,1059,1
360,quadbright,23.0,6,1,528.8980007171631,528.8968086242676,964,1
361,quadbright,24.0,11,1,727.8268337249756,727.8237342834473,1116,1
362,quadbright,25.0,14,1,537.9998683929443,537.992000579834,1077,1
363,quadbright,26.0,24,1,526.9303321838379,526.9231796264648,1253,1
364,quadbright,27.0,17,0,527.9231071472168,527.9219150543213,1347,1
365,quadbright,28.0,11,0,724.4329452514648,724.4260311126709,1281,1
366,quadbright,29.0,12,1,725.5101203918457,725.5091667175293,1225,1
367,quadbright,30.0,15,0,692.0609474182129,692.0599937438965,1316,1
368,quadbright,5.0,14,1,97.65982627868652,395.4319953918457,1318,1
369,quadbright,6.0,5,1,593.0931568145752,593.0850505828857,1298,1
370,quadbright,7.0,5,1,195.6779956817627,780.0009250640869,1409,1
371,quadbright,8.0,6,1,96.61197662353516,490.82398414611816,855,1
372,quadbright,9.0,8,1,427.69908905029297,427.69813537597656,966,1
373,quadbright,10.0,6,1,625.7009506225586,625.6980895996094,1276,1
374,quadbright,11.0,9,0,782.5500965118408,782.5489044189453,994,1
375,quadbright,12.0,6,1,493.1221008300781,493.1199550628662,1121,1
376,quadbright,13.0,12,1,493.47615242004395,493.4709072113037,1116,1
377,quadbright,14.0,8,1,594.5188999176025,594.5188999176025,1271,1
378,quadbright,15.0,6,1,595.0310230255127,595.0279235839844,1201,1
379,quadbright,16.0,12,0,702.6839256286621,702.6801109313965,915,1
380,quadbright,17.0,12,0,591.789722442627,591.7878150939941,1304,1
381,quadbright,18.0,12,0,197.80588150024414,1329.6208381652832,1090,1
382,quadbright,19.0,13,0,494.6010112762451,494.5969581604004,1053,1
383,quadbright,20.0,12,0,483.9057922363281,483.9048385620117,1158,1
384,quadbright,21.0,14,1,488.94810676574707,488.94619941711426,884,1
385,quadbright,22.0,9,0,703.1033039093018,703.1011581420898,886,1
386,quadbright,23.0,6,0,1671.7510223388672,1671.7500686645508,1236,1
387,quadbright,24.0,10,0,695.4870223999023,695.4851150512695,816,1
388,quadbright,25.0,14,0,625.0269412994385,625.0238418579102,1226,1
389,quadbright,26.0,24,1,484.2350482940674,484.2338562011719,945,1
390,quadbright,27.0,18,1,593.64914894104,593.6408042907715,972,1
391,quadbright,28.0,12,0,492.7389621734619,492.7358627319336,1020,1
392,quadbright,29.0,11,1,583.1873416900635,583.186149597168,1111,1
