trial,condition,eccentricity,magnitude,correct,srt_ms,keyboard_rt_ms,pre_change_ms,valid
1,control,5.0,20,1,199.9349594116211,596.9221591949463,1163,1
2,control,6.0,20,1,98.46305847167969,880.1772594451904,1412,1
3,control,7.0,20,1,396.47579193115234,396.4688777923584,1135,1
4,control,8.0,20,1,99.64275360107422,493.40176582336426,1334,1
5,control,9.0,20,1,593.5497283935547,593.5459136962891,1040,1
6,control,10.0,20,1,493.5159683227539,493.50905418395996,1244,1
7,control,11.0,20,1,393.9650058746338,393.95904541015625,875,1
8,control,12.0,20,1,591.7823314666748,591.7754173278809,978,1
9,control,13.0,20,1,496.68383598327637,496.68192863464355,1002,1
10,control,14.0,20,1,492.98691749572754,492.97595024108887,1071,1
11,control,15.0,20,1,624.4668960571289,624.464750289917,871,1
12,control,16.0,20,1,531.4540863037109,531.4512252807617,1394,1
13,control,17.0,20,1,483.6430549621582,483.6421012878418,986,1
14,control,18.0,20,1,492.30217933654785,492.30122566223145,1474,1
15,control,19.0,20,1,594.0618515014648,594.0580368041992,988,1
16,control,20.0,20,1,525.0310897827148,525.0260829925537,1355,1
17,control,21.0,20,1,581.5949440002441,581.5939903259277,1017,1
18,control,22.0,20,1,779.6649932861328,779.6638011932373,1207,1
19,control,23.0,20,1,591.9921398162842,591.9899940490723,800,1
20,control,24.0,20,1,493.41893196105957,493.4117794036865,1003,1
21,control,25.0,20,1,496.4251518249512,496.42109870910645,1173,1
22,control,26.0,20,1,493.8168525695801,493.8087463378906,1432,1
23,control,27.0,20,1,814.6240711212158,814.6233558654785,1372,1
24,control,28.0,20,1,419.91400718688965,419.91305351257324,1371,1
25,control,29.0,20,1,428.33399772644043,428.333044052124,1338,1
26,control,30.0,20,1,628.2317638397217,628.2260417938232,939,1
27,control,5.0,20,1,98.80805015563965,329.50496673583984,1420,1
28,control,6.0,20,1,493.88694763183594,493.8852787017822,1252,1
29,control,7.0,20,1,98.86598587036133,791.4707660675049,1190,1
30,control,8.0,20,1,396.90303802490234,396.8930244445801,1205,1
31,control,9.0,20,1,593.56689453125,593.5590267181396,1438,1
32,control,10.0,20,1,495.0861930847168,495.0852394104004,975,1
33,control,11.0,20,1,485.77880859375,485.7778549194336,1322,1
34,control,12.0,20,1,584.2239856719971,584.2230319976807,1299,1
35,control,13.0,20,1,594.3658351898193,594.3598747253418,1227,1
36,control,14.0,20,1,394.7420120239258,394.74034309387207,1004,1
37,control,15.0,20,1,494.00901794433594,494.0059185028076,968,1
38,control,16.0,20,1,397.7041244506836,397.69721031188965,1002,1
39,control,17.0,20,1,483.9448928833008,483.94274711608887,856,1
40,control,18.0,20,1,495.5630302429199,495.5592155456543,1417,1
41,control,19.0,20,1,591.9287204742432,591.9268131256104,808,1
42,control,20.0,20,1,494.68302726745605,494.67992782592773,1326,1
43,control,21.0,20,1,495.5930709838867,495.5911636352539,1068,1
44,control,22.0,20,1,593.2731628417969,593.2691097259521,1499,1
45,control,23.0,20,1,494.55809593200684,494.5542812347412,985,1
46,control,24.0,20,1,891.503095626831,891.495943069458,1420,1
47,control,25.0,20,1,493.66307258605957,493.65901947021484,1019,1
48,control,26.0,20,1,492.7201271057129,492.717981338501,1033,1
49,control,27.0,20,1,395.1530456542969,395.1458930969238,801,1
50,control,28.0,20,1,623.2750415802002,623.2709884643555,1135,1
51,control,29.0,20,1,426.0880947113037,426.0828495025635,1207,1
52,control,30.0,20,1,494.8849678039551,494.88186836242676,983,1
53,control,5.0,17,1,98.82378578186035,988.0027770996094,1008,1
54,control,6.0,17,1,97.03612327575684,623.4769821166992,1216,0
55,control,6.0,17,1,99.43509101867676,396.90542221069336,1290,1
56,control,7.0,17,1,197.10087776184082,493.82877349853516,975,1
57,control,8.0,17,1,198.81200790405273,591.5460586547852,858,1
58,control,9.0,17,1,199.53107833862305,593.0449962615967,917,1
59,control,10.0,17,1,395.45583724975586,395.45392990112305,1230,1
60,control,11.0,17,1,99.48611259460449,428.0052185058594,1336,1
61,control,12.0,17,1,429.08620834350586,1021.7599868774414,1452,1
62,control,13.0,17,0,394.84333992004395,394.84119415283203,1253,1
63,control,14.0,17,1,395.0650691986084,395.05910873413086,1387,1
64,control,15.0,17,1,493.93391609191895,493.9310550689697,1048,1
65,control,16.0,17,1,493.96491050720215,493.9601421356201,1449,1
66,control,17.0,17,1,525.989294052124,525.9850025177002,842,1
67,control,18.0,17,1,493.6089515686035,493.6070442199707,870,1
68,control,19.0,17,1,494.3230152130127,494.3208694458008,854,1
69,control,20.0,17,1,493.02196502685547,493.02005767822266,1221,1
70,control,21.0,17,1,493.60203742980957,493.5901165008545,1296,1
71,control,22.0,17,1,394.1330909729004,394.1221237182617,1055,1
72,control,23.0,17,1,593.2590961456299,593.2509899139404,902,1
73,control,24.0,17,1,493.239164352417,493.23487281799316,1227,1
74,control,25.0,17,1,495.85700035095215,495.8531856536865,1246,1
75,control,26.0,17,1,525.9180068969727,525.9158611297607,1062,1
76,control,27.0,17,1,431.80298805236816,431.80012702941895,1497,1
77,control,28.0,17,1,626.2600421905518,626.2562274932861,1017,1
78,control,29.0,17,1,394.11401748657227,394.1059112548828,1322,1
79,control,30.0,17,1,593.8723087310791,593.8653945922852,1438,1
80,control,5.0,17,1,99.15971755981445,494.43888664245605,1458,1
81,control,6.0,17,1,493.3140277862549,493.30973625183105,1470,1
82,control,7.0,17,1,90.50989151000977,386.57569885253906,820,1
83,control,8.0,17,1,394.8071002960205,394.80090141296387,1193,1
84,control,9.0,17,1,430.67193031311035,430.67002296447754,814,1
85,control,10.0,17,1,487.8420829772949,487.8408908843994,1080,1
86,control,11.0,17,1,502.5291442871094,502.52699851989746,1206,1
87,control,12.0,17,1,401.0128974914551,891.9858932495117,876,1
88,control,13.0,20,1,890.038251876831,890.0339603424072,1000,1
89,control,14.0,17,1,893.0370807647705,893.0318355560303,887,1
90,control,15.0,17,1,498.7940788269043,498.7928867340088,1195,1
91,control,16.0,17,1,494.8551654815674,494.8539733886719,949,1
92,control,17.0,17,1,591.0170078277588,591.0129547119141,934,1
93,control,18.0,17,1,495.7258701324463,495.72086334228516,1304,1
94,control,19.0,17,1,495.434045791626,495.43118476867676,1276,1
95,control,20.0,17,1,890.2089595794678,890.204906463623,1054,1
96,control,21.0,17,0,499.85194206237793,499.8490810394287,1231,1
97,control,22.0,17,1,394.24991607666016,394.24777030944824,856,1
98,control,23.0,17,1,429.87608909606934,429.872989654541,957,1
99,control,24.0,17,1,426.6848564147949,426.6791343688965,1184,1
100,control,25.0,17,1,395.9360122680664,395.9348201751709,1336,1
101,control,26.0,17,1,791.9690608978271,791.9669151306152,1330,1
102,control,27.0,17,1,594.1309928894043,594.1247940063477,915,1
103,control,28.0,17,1,590.8379554748535,590.8360481262207,1102,1
104,control,29.0,17,1,527.0919799804688,527.0912647247314,1162,1
105,control,30.0,17,1,526.3969898223877,526.3810157775879,894,1
106,control,5.0,14,1,136.5530490875244,438.07196617126465,813,1
107,control,6.0,14,1,100.18372535705566,287.34278678894043,892,1
108,control,7.0,14,1,384.71388816833496,384.71388816833496,1070,1
109,control,8.0,14,1,100.31700134277344,526.3330936431885,1336,1
110,control,9.0,14,1,526.0541439056396,526.047945022583,957,1
111,control,10.0,14,1,98.49190711975098,492.901086807251,901,1
112,control,11.0,14,1,881.1259269714355,881.1242580413818,1450,1
113,control,12.0,14,1,394.8211669921875,394.8171138763428,1013,1
114,control,13.0,20,1,901.482105255127,901.4720916748047,974,1
115,control,14.0,14,1,894.5190906524658,894.5162296295166,971,1
116,control,15.0,14,1,551.2619018554688,551.2609481811523,1428,1
117,control,16.0,14,1,494.0989017486572,494.0969944000244,920,1
118,control,17.0,14,1,603.9342880249023,603.9302349090576,1262,1
119,control,18.0,14,1,495.0377941131592,495.0368404388428,1219,1
120,control,19.0,14,1,527.9138088226318,527.9097557067871,1018,1
121,control,20.0,14,1,395.1749801635742,395.1718807220459,1451,1
122,control,21.0,20,1,583.3170413970947,583.3160877227783,1172,1
123,control,22.0,14,1,483.184814453125,483.1831455230713,900,1
124,control,23.0,14,1,492.3717975616455,492.3689365386963,994,1
125,control,24.0,14,1,490.861177444458,490.85426330566406,1248,0
126,control,24.0,14,1,296.77605628967285,296.7691421508789,1298,1
127,control,25.0,14,0,298.1288433074951,298.1278896331787,1127,1
128,control,26.0,14,1,496.1669445037842,496.16098403930664,1098,1
129,control,27.0,14,1,426.8531799316406,426.8479347229004,1175,1
130,control,28.0,14,1,395.0631618499756,395.0541019439697,1239,1
131,control,29.0,14,1,583.9078426361084,583.9066505432129,1322,1
132,control,30.0,14,0,593.8849449157715,593.8827991485596,1326,0
133,control,30.0,14,1,605.4811477661133,605.4782867431641,1132,1
134,control,5.0,14,1,98.39200973510742,394.9120044708252,1460,1
135,control,6.0,14,1,196.06709480285645,483.53099822998047,1489,1
136,control,7.0,14,1,436.6002082824707,436.596155166626,1357,1
137,control,8.0,14,1,98.94514083862305,397.78923988342285,1324,1
138,control,9.0,14,1,130.77712059020996,326.2960910797119,1119,1
139,control,10.0,14,1,396.1219787597656,690.4811859130859,1083,1
140,control,11.0,14,1,988.8269901275635,988.8229370117188,807,1
141,control,12.0,14,1,528.609037399292,528.6059379577637,1229,1
142,control,13.0,18,0,295.05205154418945,295.0460910797119,1138,1
143,control,14.0,14,1,1033.2541465759277,1033.2510471343994,1391,1
144,control,15.0,14,1,526.5541076660156,526.5469551086426,863,0
145,control,15.0,14,1,516.0000324249268,515.9990787506104,1457,1
146,control,16.0,14,1,1021.594762802124,1021.5916633605957,1074,1
147,control,17.0,14,1,491.9848442077637,491.98198318481445,1241,1
148,control,18.0,14,1,490.936279296875,490.9331798553467,971,1
149,control,19.0,14,1,504.39000129699707,504.38690185546875,1310,1
150,control,20.0,14,1,495.5310821533203,495.5289363861084,988,1
151,control,21.0,20,1,1019.9358463287354,1019.9310779571533,1420,1
152,control,22.0,14,1,396.86083793640137,396.85988426208496,1493,1
153,control,23.0,14,1,496.9336986541748,496.9329833984375,1239,1
154,control,24.0,14,1,493.11113357543945,493.1070804595947,1322,1
155,control,25.0,17,1,497.2548484802246,497.2517490386963,1201,1
156,control,26.0,14,1,297.6839542388916,297.6830005645752,1209,1
157,control,27.0,14,1,495.3618049621582,495.3601360321045,1162,1
158,control,28.0,14,1,492.5119876861572,492.5079345703125,1320,1
159,control,29.0,14,0,329.97798919677734,329.97679710388184,1069,1
160,control,30.0,14,1,593.5161113739014,593.515157699585,1129,1
161,control,5.0,11,1,98.17004203796387,393.18108558654785,1207,1
162,control,6.0,11,1,98.61993789672852,395.3900337219238,1233,1
163,control,7.0,11,1,104.07900810241699,399.2879390716553,894,1
164,control,8.0,11,1,97.5501537322998,493.84403228759766,1003,1
165,control,9.0,11,1,501.9559860229492,501.9540786743164,1268,1
166,control,10.0,11,0,498.31581115722656,498.31390380859375,1287,1
167,control,11.0,11,1,494.52900886535645,494.52710151672363,1322,1
168,control,12.0,11,1,585.0188732147217,585.0181579589844,1431,1
169,control,13.0,20,1,625.2720355987549,625.2689361572266,1094,1
170,control,14.0,11,1,593.3399200439453,593.3380126953125,863,1
171,control,15.0,11,1,493.973970413208,493.96705627441406,1027,1
172,control,16.0,11,1,594.6853160858154,594.6822166442871,1142,1
173,control,17.0,11,1,395.0691223144531,395.0629234313965,1477,1
174,control,18.0,11,1,891.2599086761475,891.2568092346191,977,1
175,control,19.0,11,1,410.08901596069336,410.08615493774414,1009,1
176,control,20.0,11,1,595.2980518341064,595.2961444854736,1153,1
177,control,21.0,18,1,527.3900032043457,527.3809432983398,1408,1
178,control,22.0,11,1,494.7550296783447,494.7540760040283,1259,1
179,control,23.0,11,0,593.7719345092773,593.7697887420654,1426,1
180,control,24.0,11,1,523.4298706054688,523.4286785125732,1376,1
181,control,25.0,17,1,98.28591346740723,395.51687240600586,1323,1
182,control,26.0,11,1,495.01585960388184,495.01585960388184,1032,1
183,control,27.0,11,1,493.6099052429199,493.6068058013916,1070,1
184,control,28.0,11,1,492.7330017089844,492.73085594177246,1426,1
185,control,29.0,17,1,492.1460151672363,492.1438694000244,1456,1
186,control,30.0,11,1,893.3398723602295,893.3379650115967,1168,1
187,control,5.0,11,1,98.24013710021973,841.123104095459,1355,1
188,control,6.0,11,0,198.6081600189209,596.8801975250244,1169,1
189,control,7.0,11,1,502.54082679748535,502.5358200073242,875,1
190,control,8.0,11,1,488.7807369232178,488.77787590026855,1436,1
191,control,9.0,11,1,394.7761058807373,394.7720527648926,1277,1
192,control,10.0,14,1,98.6170768737793,495.0430393218994,1247,1
193,control,11.0,11,1,196.1839199066162,497.5249767303467,1340,1
194,control,12.0,11,1,198.6069679260254,397.9299068450928,1498,1
195,control,13.0,20,1,394.76799964904785,394.76680755615234,920,1
196,control,14.0,11,1,398.2250690460205,398.2241153717041,1076,1
197,control,15.0,11,1,398.6189365386963,398.61607551574707,880,1
198,control,16.0,11,1,591.0170078277588,591.0141468048096,1103,1
199,control,17.0,11,1,592.0560359954834,592.0531749725342,967,1
200,control,18.0,11,1,493.52502822875977,493.52312088012695,1366,1
201,control,19.0,11,1,493.7601089477539,493.757963180542,1016,1
202,control,20.0,11,1,594.6052074432373,594.6030616760254,1265,1
203,control,21.0,18,1,401.25584602355957,401.25298500061035,1045,1
204,control,22.0,11,1,428.22813987731934,428.2240867614746,1062,1
205,control,23.0,14,1,593.5511589050293,593.548059463501,1342,1
206,control,24.0,11,1,496.64807319641113,496.60515785217285,966,0
207,control,24.0,11,1,1003.4513473510742,1003.4482479095459,910,1
208,control,25.0,15,1,494.110107421875,494.10390853881836,1262,1
209,control,26.0,11,1,395.33376693725586,395.33090591430664,915,1
210,control,27.0,11,1,504.93311882019043,504.9290657043457,962,1
211,control,28.0,11,1,590.9481048583984,590.947151184082,1189,1
212,control,29.0,17,1,492.59209632873535,492.58995056152344,1279,1
213,control,30.0,11,1,530.7891368865967,530.7881832122803,1137,1
214,control,5.0,8,1,130.6748390197754,430.56583404541016,1460,1
215,control,6.0,14,1,88.04583549499512,880.396842956543,1448,1
216,control,7.0,8,1,100.32987594604492,497.9429244995117,1312,1
217,control,8.0,8,1,492.5692081451416,492.5680160522461,803,1
218,control,9.0,8,1,99.05219078063965,496.1869716644287,1138,1
219,control,10.0,14,1,129.96292114257812,525.2459049224854,1211,0
220,control,10.0,14,1,96.1599349975586,425.78983306884766,889,1
221,control,11.0,8,1,591.5369987487793,591.5348529815674,810,1
222,control,12.0,8,1,397.6256847381592,397.62258529663086,900,1
223,control,13.0,19,1,494.0507411956787,494.0488338470459,976,1
224,control,14.0,8,1,625.3700256347656,625.3681182861328,1473,1
225,control,15.0,8,1,495.54896354675293,495.5439567565918,1448,1
226,control,16.0,8,1,624.7420310974121,624.7320175170898,1314,1
227,control,17.0,8,1,593.7976837158203,593.7936305999756,949,1
228,control,18.0,8,1,526.6749858856201,526.6728401184082,893,1
229,control,19.0,8,0,307.3768615722656,307.3709011077881,833,1
230,control,20.0,8,1,495.5439567565918,495.53894996643066,1331,1
231,control,21.0,17,1,383.4547996520996,383.4538459777832,1122,1
232,control,22.0,8,1,629.3849945068359,629.3840408325195,1225,0
233,control,22.0,8,0,723.9480018615723,723.9458560943604,1208,1
234,control,23.0,14,1,498.8818168640137,498.87895584106445,1085,1
235,control,24.0,8,0,694.0739154815674,694.0710544586182,851,1
236,control,25.0,15,1,691.9679641723633,691.964864730835,944,1
237,control,26.0,8,0,396.75021171569824,396.7471122741699,1478,1
238,control,27.0,8,1,395.6289291381836,395.6267833709717,1266,1
239,control,28.0,8,1,395.51615715026855,395.51401138305664,815,1
240,control,29.0,15,1,494.002103805542,493.9999580383301,1212,1
241,control,30.0,8,1,582.573652267456,582.5719833374023,1334,1
242,control,5.0,8,1,526.9870758056641,526.9849300384521,1359,1
243,control,6.0,14,1,98.45972061157227,482.2518825531006,846,1
244,control,7.0,8,1,100.31890869140625,500.1959800720215,1021,1
245,control,8.0,8,1,97.8403091430664,494.63915824890137,1078,1
246,control,9.0,8,1,99.33209419250488,498.0180263519287,1414,1
247,control,10.0,12,1,583.9779376983643,583.9769840240479,966,1
248,control,11.0,8,1,528.7718772888184,528.7699699401855,823,1
249,control,12.0,8,1,98.64401817321777,296.30088806152344,1208,1
250,control,13.0,19,1,497.1320629119873,497.1299171447754,1203,1
251,control,14.0,8,1,396.0261344909668,396.0251808166504,1034,1
252,control,15.0,8,1,320.25671005249023,420.9427833557129,1494,1
253,control,16.0,8,1,781.566858291626,781.5659046173096,1410,1
254,control,17.0,8,0,597.4042415618896,597.4001884460449,1134,1
255,control,18.0,8,1,495.7561492919922,495.7540035247803,984,1
256,control,19.0,11,1,297.12891578674316,297.12796211242676,1329,1
257,control,20.0,8,1,497.6928234100342,497.68996238708496,951,1
258,control,21.0,17,1,495.1941967010498,495.1930046081543,1085,1
259,control,22.0,11,1,491.95289611816406,491.9469356536865,1211,1
260,control,23.0,12,1,530.0440788269043,530.0419330596924,1083,1
261,control,24.0,11,1,395.30181884765625,395.29919624328613,1351,1
262,control,25.0,14,1,495.24879455566406,495.24784088134766,1351,1
263,control,26.0,11,1,483.8399887084961,483.8378429412842,1053,1
264,control,27.0,8,1,594.3417549133301,594.3398475646973,1282,1
265,control,28.0,8,1,498.121976852417,498.1188774108887,1235,1
266,control,29.0,15,0,400.4049301147461,400.40087699890137,812,1
267,control,30.0,8,0,296.09107971191406,296.08702659606934,1431,1
268,control,5.0,5,1,193.70698928833008,514.3961906433105,1065,1
269,control,6.0,12,1,516.1247253417969,516.1237716674805,1241,1
270,control,7.0,5,1,880.8403015136719,880.83815574646,936,1
271,control,8.0,5,1,597.6979732513428,597.6951122283936,1487,1
272,control,9.0,5,1,95.61896324157715,582.0369720458984,893,1
273,control,10.0,12,0,97.2299575805664,388.29588890075684,1290,1
274,control,11.0,5,1,604.6218872070312,604.6197414398193,949,1
275,control,12.0,5,1,495.013952255249,495.0129985809326,818,1
276,control,13.0,18,0,599.4119644165039,599.4107723236084,1101,1
277,control,14.0,5,1,397.8428840637207,397.8397846221924,851,1
278,control,15.0,5,1,598.6709594726562,598.6678600311279,923,1
279,control,16.0,5,1,593.1789875030518,593.1761264801025,1296,1
280,control,17.0,11,1,494.48108673095703,494.4779872894287,1149,1
281,control,18.0,5,1,628.8208961486816,628.8189888000488,1307,1
282,control,19.0,11,1,725.7688045501709,725.7678508758545,1178,1
283,control,20.0,5,0,629.5311450958252,629.5280456542969,1056,1
284,control,21.0,15,1,385.3282928466797,385.3261470794678,1046,1
285,control,22.0,11,1,978.4069061279297,978.4059524536133,949,1
286,control,23.0,12,1,385.39600372314453,385.39600372314453,1028,1
287,control,24.0,11,1,498.25000762939453,498.2478618621826,1235,1
288,control,25.0,14,1,495.3169822692871,495.3162670135498,1235,1
289,control,26.0,11,1,1022.1524238586426,1022.1493244171143,980,1
290,control,27.0,5,1,724.8523235321045,724.8461246490479,1466,0
291,control,27.0,5,1,485.3839874267578,485.3832721710205,1066,1
292,control,28.0,5,1,494.0159320831299,494.00997161865234,1106,1
293,control,29.0,17,1,496.45304679870605,496.4489936828613,1354,1
294,control,30.0,11,1,499.9971389770508,499.99403953552246,1355,1
295,control,5.0,5,1,97.1379280090332,492.77424812316895,1070,1
296,control,6.0,12,1,394.4699764251709,394.46306228637695,956,1
297,control,7.0,5,0,97.11813926696777,591.8960571289062,875,0
298,control,7.0,5,1,397.357702255249,397.3538875579834,972,1
299,control,8.0,5,1,584.4190120697021,584.4171047210693,1138,0
300,control,8.0,5,1,397.98617362976074,397.982120513916,839,1
301,control,9.0,5,1,400.4337787628174,986.1268997192383,1105,1
302,control,10.0,14,1,397.16601371765137,397.16291427612305,957,1
303,control,11.0,5,1,595.8189964294434,595.8161354064941,869,1
304,control,12.0,5,0,888.4110450744629,888.4050846099854,1172,1
305,control,13.0,19,1,526.4368057250977,526.4346599578857,996,1
306,control,14.0,5,0,889.6360397338867,889.6307945251465,1107,1
307,control,15.0,5,1,597.8219509124756,597.8200435638428,1317,1
308,control,16.0,5,1,494.9071407318115,494.905948638916,807,1
309,control,17.0,11,1,493.3209419250488,493.3178424835205,1213,1
310,control,18.0,5,1,781.9678783416748,781.9666862487793,1405,1
311,control,19.0,9,1,631.4139366149902,631.4120292663574,1478,1
312,control,20.0,8,1,493.12806129455566,493.12615394592285,1270,1
313,control,21.0,15,1,395.8859443664551,395.8849906921387,1445,1
314,control,22.0,9,1,594.8522090911865,594.8500633239746,1472,1
315,control,23.0,11,1,596.6198444366455,596.6169834136963,1234,1
316,control,24.0,9,0,496.11496925354004,496.1130619049072,988,1
317,control,25.0,12,1,509.1269016265869,509.1238021850586,1375,1
318,control,26.0,9,1,493.1809902191162,493.1771755218506,1101,1
319,control,27.0,5,1,899.4948863983154,899.4889259338379,1269,1
320,control,28.0,5,1,408.68306159973145,408.6799621582031,812,1
321,control,29.0,17,1,395.7676887512207,395.7648277282715,1199,1
322,control,30.0,11,1,594.0890312194824,594.0868854522705,867,1
323,control,5.0,2,1,98.46019744873047,297.8041172027588,1305,1
324,control,6.0,11,1,98.36196899414062,394.98400688171387,1134,1
325,control,7.0,2,1,131.32381439208984,518.9778804779053,1309,1
326,control,8.0,2,1,527.3909568786621,527.3902416229248,1202,1
327,control,9.0,2,0,197.45206832885742,493.1480884552002,969,1
328,control,10.0,14,1,97.4888801574707,978.5430431365967,1007,1
329,control,11.0,2,0,196.6111660003662,492.9511547088623,1000,1
330,control,12.0,8,1,988.6751174926758,988.6739253997803,879,1
331,control,13.0,19,1,99.18379783630371,394.7148323059082,995,1
332,control,14.0,8,1,196.4740753173828,591.6509628295898,896,1
333,control,15.0,2,0,693.011999130249,693.0100917816162,1093,1
334,control,16.0,2,1,295.15862464904785,295.1548099517822,1482,1
335,control,17.0,9,1,493.75200271606445,493.7479496002197,1425,1
336,control,18.0,2,0,496.86503410339355,496.86193466186523,1064,1
337,control,19.0,9,1,627.1648406982422,627.161979675293,1455,1
338,control,20.0,8,1,493.4961795806885,493.49403381347656,1039,1
339,control,21.0,14,0,494.6622848510742,494.6591854095459,961,1
340,control,22.0,9,1,527.9390811920166,527.9381275177002,1290,1
341,control,23.0,11,1,432.7549934387207,432.7521324157715,1206,1
342,control,24.0,11,0,408.1840515136719,408.18095207214355,1351,1
343,control,25.0,12,1,396.25096321105957,396.24881744384766,1352,1
344,control,26.0,9,1,486.3579273223877,486.3569736480713,1426,1
345,control,27.0,2,1,691.2119388580322,691.2100315093994,900,1
346,control,28.0,2,1,395.59197425842285,395.59102058410645,1179,1
347,control,29.0,16,0,295.08423805236816,295.0730323791504,1006,1
348,control,30.0,9,0,529.1352272033691,529.1340351104736,1239,1
349,control,5.0,2,1,200.16813278198242,399.5020389556885,1054,1
350,control,6.0,11,1,98.53196144104004,395.4958915710449,1026,1
351,control,7.0,2,1,197.74174690246582,597.7458953857422,1232,1
352,control,8.0,2,1,626.0879039764404,626.0871887207031,968,1
353,control,9.0,5,1,427.6397228240967,427.6390075683594,1131,0
354,control,9.0,5,1,95.99900245666504,397.97306060791016,1012,1
355,control,10.0,13,1,397.7468013763428,397.74274826049805,1299,1
356,control,11.0,5,1,495.42903900146484,495.4259395599365,1067,1
357,control,12.0,8,1,509.10186767578125,509.09900665283203,874,1
358,control,13.0,18,1,324.1088390350342,324.1081237792969,945,1
359,control,14.0,8,0,423.28786849975586,423.2831001281738,1162,1
360,control,15.0,5,1,725.5361080169678,725.5301475524902,1068,1
361,control,16.0,2,0,492.7940368652344,492.79212951660156,1063,1
362,control,17.0,9,1,497.12491035461426,497.12300300598145,1224,1
363,control,18.0,5,1,597.3381996154785,597.3360538482666,1412,1
364,control,19.0,8,1,394.3932056427002,394.3910598754883,1100,1
365,control,20.0,6,1,494.40979957580566,494.40693855285645,973,1
366,control,21.0,15,1,502.8798580169678,502.87604331970215,907,1
367,control,22.0,8,0,408.0798625946045,408.0772399902344,1176,1
368,control,23.0,9,1,394.7949409484863,394.7911262512207,967,1
369,control,24.0,12,1,483.6761951446533,483.6752414703369,1486,1
370,control,25.0,11,1,493.1001663208008,493.09611320495605,1402,1
371,control,26.0,8,1,395.982027053833,395.9810733795166,1369,1
372,control,27.0,2,0,590.2211666107178,590.217113494873,1061,1
373,control,28.0,2,0,484.33589935302734,484.33494567871094,1036,1
374,control,29.0,17,1,294.3732738494873,294.370174407959,1278,0
375,control,29.0,17,1,393.6760425567627,393.6729431152344,1133,1
376,control,30.0,11,1,583.9312076568604,583.9300155639648,1119,1
377,control,5.0,1,1,132.4920654296875,427.8891086578369,1235,1
378,control,6.0,9,0,99.95508193969727,503.07703018188477,1125,1
379,control,7.0,1,0,199.1560459136963,395.4000473022461,1267,1
380,control,8.0,1,0,494.2150115966797,494.2140579223633,1231,1
381,control,9.0,5,1,198.91977310180664,506.38580322265625,1498,1
382,control,10.0,13,1,504.54235076904297,504.53925132751465,1139,1
383,control,11.0,5,1,593.1129455566406,593.1100845336914,1269,1
384,control,12.0,6,1,294.85487937927246,294.85177993774414,1223,1
385,control,13.0,18,1,483.58917236328125,483.58702659606934,1135,1
386,control,14.0,9,1,495.56827545166016,495.56422233581543,1163,1
387,control,15.0,5,1,583.824872970581,583.8236808776855,1119,1
388,control,16.0,5,0,395.60914039611816,395.60699462890625,1359,1
389,control,17.0,8,1,689.6898746490479,689.6860599517822,1246,1
390,control,18.0,5,0,608.4260940551758,608.4239482879639,1119,1
391,control,19.0,8,1,495.3947067260742,495.391845703125,1084,1
392,control,20.0,6,1,396.2900638580322,396.2891101837158,1167,1
393,control,21.0,15,1,529.6759605407715,529.6728610992432,831,1
394,control,22.0,9,1,435.36376953125,435.3599548339844,1192,1
395,control,23.0,9,1,593.3339595794678,593.3270454406738,1238,1
396,control,24.0,12,0,286.52310371398926,286.52215003967285,1192,1
397,control,25.0,11,0,497.9519844055176,497.94912338256836,977,1
398,control,26.0,8,1,496.8440532684326,496.8430995941162,1250,0
399,control,26.0,8,1,597.4810123443604,597.4791049957275,979,1
400,control,27.0,5,0,592.8750038146973,592.872142791748,908,1
401,control,28.0,5,0,394.1988945007324,394.1969871520996,986,1
402,control,29.0,17,0,394.3960666656494,394.3929672241211,1329,1
403,control,30.0,11,1,592.0608043670654,592.055082321167,992,1
1,quadbright,5.0,20,1,97.91302680969238,493.7119483947754,1285,1
2,quadbright,6.0,20,1,199.22876358032227,626.2338161468506,1490,1
3,quadbright,7.0,20,1,396.1169719696045,396.11172676086426,1176,1
4,quadbright,8.0,20,1,100.02779960632324,491.38879776000977,953,1
5,quadbright,9.0,20,1,490.3998374938965,490.3979301452637,900,1
6,quadbright,10.0,20,1,395.2460289001465,395.2372074127197,1350,1
7,quadbright,11.0,20,1,493.53504180908203,493.5302734375,1322,1
8,quadbright,12.0,20,1,890.8333778381348,890.8302783966064,931,1
9,quadbright,13.0,20,1,890.618085861206,890.6090259552002,1080,1
10,quadbright,14.0,20,1,395.1432704925537,395.139217376709,1277,1
11,quadbright,15.0,20,1,493.3650493621826,493.3600425720215,1194,1
12,quadbright,16.0,20,1,405.7340621948242,405.7271480560303,858,1
13,quadbright,17.0,20,1,492.6888942718506,492.68507957458496,1305,1
14,quadbright,18.0,20,1,593.8107967376709,593.8088893890381,1308,1
15,quadbright,19.0,20,1,417.70005226135254,417.70005226135254,840,1
16,quadbright,20.0,20,1,496.54316902160645,496.5400695800781,815,1
17,quadbright,21.0,20,1,500.3039836883545,500.3011226654053,1337,1
18,quadbright,22.0,20,1,593.1098461151123,593.1079387664795,1069,1
19,quadbright,23.0,20,1,493.8058853149414,493.804931640625,1440,1
20,quadbright,24.0,20,1,485.8078956604004,485.8067035675049,1199,1
21,quadbright,25.0,20,1,493.09372901916504,493.0896759033203,831,1
22,quadbright,26.0,20,1,492.78783798217773,492.7821159362793,1335,1
23,quadbright,27.0,20,1,822.8540420532227,822.8499889373779,971,1
24,quadbright,28.0,20,1,425.61936378479004,425.6172180175781,1170,1
25,quadbright,29.0,20,1,427.88004875183105,427.87909507751465,1302,1
26,quadbright,30.0,20,1,400.8142948150635,400.81000328063965,939,1
27,quadbright,5.0,20,1,100.33202171325684,395.36213874816895,1270,1
28,quadbright,6.0,20,1,98.87099266052246,494.04215812683105,1071,1
29,quadbright,7.0,20,1,98.63090515136719,496.722936630249,1371,1
30,quadbright,8.0,20,1,97.98979759216309,385.03193855285645,806,1
31,quadbright,9.0,20,1,405.8549404144287,405.84707260131836,1093,1
32,quadbright,10.0,20,1,396.27695083618164,396.2750434875488,1369,1
33,quadbright,11.0,20,1,726.5160083770752,726.5119552612305,920,1
34,quadbright,12.0,20,1,481.95481300354004,481.95409774780273,1071,1
35,quadbright,13.0,20,1,527.5070667266846,527.5042057037354,1415,1
36,quadbright,14.0,20,1,790.4729843139648,790.4713153839111,1376,1
37,quadbright,15.0,20,1,394.60301399230957,394.59896087646484,907,1
38,quadbright,16.0,20,1,596.4958667755127,596.4899063110352,1394,1
39,quadbright,17.0,20,1,484.58385467529297,484.58290100097656,1296,1
40,quadbright,18.0,20,1,691.796064376831,691.791296005249,936,1
41,quadbright,19.0,20,1,593.505859375,593.5029983520508,983,1
42,quadbright,20.0,20,1,623.6238479614258,623.6190795898438,1160,1
43,quadbright,21.0,20,1,394.52600479125977,394.52099800109863,1097,1
44,quadbright,22.0,20,1,592.0891761779785,592.083215713501,1310,1
45,quadbright,23.0,20,1,790.4829978942871,790.4789447784424,1369,1
46,quadbright,24.0,20,1,494.0319061279297,494.02904510498047,1105,1
47,quadbright,25.0,20,1,888.9338970184326,888.9312744140625,970,1
48,quadbright,26.0,20,1,493.145227432251,493.14308166503906,901,1
49,quadbright,27.0,20,1,494.1518306732178,494.14777755737305,998,1
50,quadbright,28.0,20,1,394.49071884155273,394.4859504699707,1100,1
51,quadbright,29.0,20,1,493.9308166503906,493.9279556274414,1452,1
52,quadbright,30.0,20,1,592.5970077514648,592.5929546356201,1285,1
53,quadbright,5.0,17,1,99.51901435852051,494.873046875,869,1
54,quadbright,6.0,17,1,131.4830780029297,426.1810779571533,957,1
55,quadbright,7.0,17,0,294.99292373657227,294.9869632720947,1468,1
56,quadbright,8.0,17,1,525.4302024841309,525.4242420196533,1453,1
57,quadbright,9.0,17,1,395.5702781677246,395.5650329589844,814,1
58,quadbright,10.0,17,1,98.65379333496094,890.0759220123291,862,1
59,quadbright,11.0,17,1,592.5779342651367,592.5757884979248,830,0
60,quadbright,11.0,17,1,427.17576026916504,427.1731376647949,1180,1
61,quadbright,12.0,17,1,230.38625717163086,428.67302894592285,1365,1
62,quadbright,13.0,17,1,99.36881065368652,494.1689968109131,1074,1
63,quadbright,14.0,17,1,526.3040065765381,526.2970924377441,904,1
64,quadbright,15.0,17,1,395.61009407043457,395.60818672180176,822,1
65,quadbright,16.0,17,1,493.8092231750488,493.807315826416,1100,1
66,quadbright,17.0,17,1,529.0827751159668,529.0799140930176,827,1
67,quadbright,18.0,17,1,494.2350387573242,494.2300319671631,1348,1
68,quadbright,19.0,17,1,495.4698085784912,495.46170234680176,907,1
69,quadbright,20.0,17,1,595.8149433135986,595.8108901977539,1098,1
70,quadbright,21.0,17,1,494.09985542297363,494.08793449401855,890,1
71,quadbright,22.0,17,1,526.1240005493164,526.1170864105225,976,1
72,quadbright,23.0,17,1,593.6939716339111,593.6861038208008,1320,1
73,quadbright,24.0,17,1,894.9360847473145,894.9329853057861,977,1
74,quadbright,25.0,17,1,426.5458583831787,426.541805267334,1371,1
75,quadbright,26.0,17,1,823.0400085449219,823.0381011962891,1023,1
76,quadbright,27.0,17,1,496.049165725708,496.0470199584961,1347,1
77,quadbright,28.0,17,1,494.2450523376465,494.24099922180176,1465,1
78,quadbright,29.0,17,0,791.8798923492432,791.8758392333984,1390,1
79,quadbright,30.0,17,1,394.76585388183594,394.7598934173584,1086,1
80,quadbright,5.0,17,1,99.36714172363281,395.719051361084,865,1
81,quadbright,6.0,17,1,99.52902793884277,891.5011882781982,919,1
82,quadbright,7.0,20,1,196.77400588989258,493.2060241699219,998,1
83,quadbright,8.0,17,1,406.2347412109375,406.22901916503906,1020,1
84,quadbright,9.0,17,1,425.41003227233887,425.4031181335449,1089,1
85,quadbright,10.0,17,1,394.2122459411621,394.2084312438965,1319,1
86,quadbright,11.0,17,1,493.9298629760742,493.927001953125,885,1
87,quadbright,12.0,17,1,495.58281898498535,495.5787658691406,1294,1
88,quadbright,13.0,17,1,492.9320812225342,492.92516708374023,834,1
89,quadbright,14.0,17,1,495.7289695739746,495.7258701324463,1441,1
90,quadbright,15.0,17,1,493.83091926574707,493.82591247558594,861,1
91,quadbright,16.0,17,1,582.8619003295898,582.8609466552734,904,1
92,quadbright,17.0,17,1,493.09325218200684,493.0901527404785,1176,1
93,quadbright,18.0,17,1,394.3438529968262,394.33884620666504,883,1
94,quadbright,19.0,17,1,495.02015113830566,495.01895904541016,1120,1
95,quadbright,20.0,17,1,494.40622329711914,494.39406394958496,1473,1
96,quadbright,21.0,17,1,495.4338073730469,495.43285369873047,1491,1
97,quadbright,22.0,17,1,525.8088111877441,525.806188583374,907,1
98,quadbright,23.0,17,1,505.92994689941406,505.92684745788574,867,1
99,quadbright,24.0,17,1,495.09596824645996,495.09191513061523,1027,1
100,quadbright,25.0,17,0,631.5367221832275,631.5350532531738,1035,0
101,quadbright,25.0,17,1,493.24703216552734,493.24607849121094,841,1
102,quadbright,26.0,17,1,594.1097736358643,594.1078662872314,892,1
103,quadbright,27.0,17,1,394.1540718078613,394.1469192504883,1458,1
104,quadbright,28.0,17,1,395.07007598876953,395.0650691986084,1279,1
105,quadbright,29.0,20,1,491.87612533569336,491.87397956848145,1486,1
106,quadbright,30.0,17,1,495.0299263000488,495.0289726257324,1135,1
107,quadbright,5.0,14,1,98.36602210998535,493.38507652282715,1411,1
108,quadbright,6.0,14,1,890.1610374450684,890.1591300964355,1123,1
109,quadbright,7.0,20,1,494.5337772369385,494.52686309814453,1187,1
110,quadbright,8.0,14,1,97.00202941894531,591.04323387146,1333,1
111,quadbright,9.0,14,1,394.3629264831543,394.3607807159424,1445,1
112,quadbright,10.0,14,1,99.69091415405273,427.29902267456055,915,1
113,quadbright,11.0,14,1,635.8237266540527,635.822057723999,1166,1
114,quadbright,12.0,14,1,428.8208484649658,428.8198947906494,822,1
115,quadbright,13.0,14,1,1021.9099521636963,1021.9011306762695,1220,1
116,quadbright,14.0,14,1,626.3570785522461,626.3549327850342,1444,1
117,quadbright,15.0,14,1,879.0807723999023,879.0807723999023,1192,1
118,quadbright,16.0,14,1,593.2390689849854,593.2290554046631,1408,1
119,quadbright,17.0,14,1,593.8129425048828,593.8091278076172,935,1
120,quadbright,18.0,14,1,425.5838394165039,425.57692527770996,1345,1
121,quadbright,19.0,14,1,492.74492263793945,492.7377700805664,953,0
122,quadbright,19.0,14,1,592.2167301177979,592.214822769165,1137,1
123,quadbright,20.0,14,1,591.1600589752197,591.1579132080078,1199,1
124,quadbright,21.0,14,1,494.326114654541,494.31610107421875,1309,1
125,quadbright,22.0,14,1,502.8870105743408,502.8848648071289,1085,1
126,quadbright,23.0,14,1,778.0270576477051,778.0258655548096,1092,1
127,quadbright,24.0,14,1,790.6570434570312,790.6498908996582,1411,1
128,quadbright,25.0,14,1,500.0739097595215,500.0720024108887,1119,1
129,quadbright,26.0,14,1,494.45176124572754,494.45080757141113,1175,1
130,quadbright,27.0,14,1,525.1562595367432,525.1531600952148,1093,1
131,quadbright,28.0,14,1,527.0378589630127,527.0369052886963,1191,1
132,quadbright,29.0,20,1,488.645076751709,488.6441230773926,928,1
133,quadbright,30.0,14,1,506.6239833831787,506.6211223602295,872,1
134,quadbright,5.0,14,1,89.24579620361328,484.9588871002197,936,1
135,quadbright,6.0,14,1,99.70474243164062,494.56095695495605,1264,1
136,quadbright,7.0,18,1,493.36886405944824,493.3629035949707,1031,1
137,quadbright,8.0,14,1,296.4332103729248,682.2478771209717,997,1
138,quadbright,9.0,14,1,392.99607276916504,392.9917812347412,895,1
139,quadbright,10.0,14,1,405.40003776550293,405.3981304168701,1119,1
140,quadbright,11.0,14,1,428.96509170532227,428.96223068237305,1186,1
141,quadbright,12.0,14,1,688.8692378997803,688.866138458252,875,1
142,quadbright,13.0,14,1,891.4198875427246,891.4167881011963,1054,1
143,quadbright,14.0,14,1,594.0630435943604,594.0608978271484,1034,1
144,quadbright,15.0,14,1,593.8329696655273,593.8317775726318,929,1
145,quadbright,16.0,14,1,483.3967685699463,483.3967685699463,1000,1
146,quadbright,17.0,14,1,428.6208152770996,428.6189079284668,1443,1
147,quadbright,18.0,14,1,426.3632297515869,426.361083984375,1422,1
148,quadbright,19.0,14,1,425.3239631652832,425.321102142334,1488,1
149,quadbright,20.0,14,1,395.16282081604004,395.1611518859863,1356,1
150,quadbright,21.0,14,1,590.5649662017822,590.5628204345703,1227,1
151,quadbright,22.0,14,1,493.0579662322998,493.0558204650879,1447,0
152,quadbright,22.0,14,1,498.09885025024414,498.0950355529785,1193,1
153,quadbright,23.0,14,1,879.6689510345459,879.6679973602295,896,1
154,quadbright,24.0,14,1,593.3821201324463,593.3771133422852,1369,1
155,quadbright,25.0,14,1,924.4952201843262,924.4868755340576,1490,1
156,quadbright,26.0,14,1,525.8848667144775,525.8779525756836,1244,1
157,quadbright,27.0,14,1,516.7701244354248,516.7689323425293,1073,1
158,quadbright,28.0,14,1,492.9201602935791,492.9170608520508,1232,1
159,quadbright,29.0,18,1,494.7021007537842,494.69804763793945,1193,1
160,quadbright,30.0,14,1,492.0201301574707,492.0170307159424,1458,1
161,quadbright,5.0,11,1,97.88799285888672,394.67382431030273,841,1
162,quadbright,6.0,11,1,98.93560409545898,396.8539237976074,1380,1
163,quadbright,7.0,18,1,98.39487075805664,493.3280944824219,1264,1
164,quadbright,8.0,11,1,98.70004653930664,494.0791130065918,1317,1
165,quadbright,9.0,11,0,493.6819076538086,493.6800003051758,1328,1
166,quadbright,10.0,11,1,426.4531135559082,426.44405364990234,835,1
167,quadbright,11.0,11,1,594.5770740509033,594.5758819580078,1247,1
168,quadbright,12.0,11,1,497.29418754577637,497.29108810424805,1344,1
169,quadbright,13.0,11,1,398.30613136291504,398.30493927001953,1087,1
170,quadbright,14.0,11,1,483.74104499816895,483.74009132385254,1246,1
171,quadbright,15.0,11,1,495.01490592956543,495.0118064880371,1436,1
172,quadbright,16.0,11,1,496.45495414733887,496.45209312438965,852,1
173,quadbright,17.0,11,1,493.82925033569336,493.82615089416504,1406,1
174,quadbright,18.0,11,1,592.519998550415,592.5168991088867,1183,1
175,quadbright,19.0,11,1,495.35083770751953,495.3501224517822,1436,1
176,quadbright,20.0,11,1,592.5769805908203,592.5707817077637,1361,1
177,quadbright,21.0,11,1,637.0558738708496,637.0527744293213,1396,1
178,quadbright,22.0,11,1,495.45884132385254,495.45788764953613,1152,1
179,quadbright,23.0,11,0,593.555212020874,593.5530662536621,853,1
180,quadbright,24.0,11,1,482.9533100128174,482.9521179199219,1127,1
181,quadbright,25.0,11,1,593.7232971191406,593.7221050262451,824,1
182,quadbright,26.0,11,1,361.8049621582031,361.8030548095703,1176,1
183,quadbright,27.0,11,1,493.973970413208,493.96395683288574,1264,1
184,quadbright,28.0,11,1,501.4219284057617,501.4190673828125,1258,1
185,quadbright,29.0,18,1,390.3918266296387,390.39111137390137,1214,1
186,quadbright,30.0,11,1,594.4490432739258,594.4478511810303,800,1
187,quadbright,5.0,11,1,879.6617984771729,879.6608448028564,1065,1
188,quadbright,6.0,11,1,186.76114082336426,482.44714736938477,976,1
189,quadbright,7.0,17,1,99.38478469848633,399.8539447784424,1150,1
190,quadbright,8.0,11,1,493.9119815826416,493.90697479248047,832,1
191,quadbright,9.0,14,1,100.45599937438965,504.55284118652344,877,1
192,quadbright,10.0,11,1,596.4958667755127,596.4946746826172,1279,1
193,quadbright,11.0,11,1,98.73795509338379,495.09501457214355,1120,1
194,quadbright,12.0,11,1,1015.5107975006104,1015.510082244873,860,1
195,quadbright,13.0,11,1,426.3169765472412,426.3148307800293,845,1
196,quadbright,14.0,11,1,429.5816421508789,429.5799732208252,1010,1
197,quadbright,15.0,11,1,624.7761249542236,624.7701644897461,1475,1
198,quadbright,16.0,11,0,528.1171798706055,528.1162261962891,1421,1
199,quadbright,17.0,11,1,432.628870010376,432.62791633605957,1368,1
200,quadbright,18.0,11,1,498.22473526000977,498.22163581848145,970,1
201,quadbright,19.0,11,1,496.07396125793457,496.07396125793457,1437,1
202,quadbright,20.0,11,1,494.0497875213623,494.04072761535645,921,1
203,quadbright,21.0,11,0,724.0891456604004,724.0872383117676,1452,1
204,quadbright,22.0,11,1,583.0600261688232,583.0588340759277,1452,1
205,quadbright,23.0,14,1,499.88698959350586,499.88293647766113,910,1
206,quadbright,24.0,11,0,493.64399909973145,493.6411380767822,803,1
207,quadbright,25.0,11,1,583.1220149993896,583.1210613250732,1162,1
208,quadbright,26.0,11,1,296.1280345916748,296.1268424987793,905,1
209,quadbright,27.0,11,1,495.7318305969238,495.729923248291,1181,1
210,quadbright,28.0,11,0,879.5268535614014,879.5249462127686,1020,1
211,quadbright,29.0,17,1,527.4910926818848,527.4901390075684,1279,1
212,quadbright,30.0,11,1,426.8958568572998,426.88775062561035,1104,1
213,quadbright,5.0,8,1,100.79789161682129,492.20991134643555,903,1
214,quadbright,6.0,8,1,595.6020355224609,595.6008434295654,1079,1
215,quadbright,7.0,17,1,424.9541759490967,424.94797706604004,1277,1
216,quadbright,8.0,8,1,100.68488121032715,498.8288879394531,1168,1
217,quadbright,9.0,14,1,396.23022079467773,396.2280750274658,1155,1
218,quadbright,10.0,8,1,398.2701301574707,398.2670307159424,1404,1
219,quadbright,11.0,8,1,483.88195037841797,483.88004302978516,997,1
220,quadbright,12.0,8,0,495.7127571105957,495.7089424133301,1392,1
221,quadbright,13.0,8,1,427.85096168518066,427.84881591796875,1094,1
222,quadbright,14.0,8,1,485.81981658935547,485.81910133361816,894,1
223,quadbright,15.0,8,1,492.887020111084,492.88392066955566,1278,0
224,quadbright,15.0,8,1,692.0959949493408,692.094087600708,1174,1
225,quadbright,16.0,14,1,989.2988204956055,989.2969131469727,1413,1
226,quadbright,17.0,8,1,495.12386322021484,495.12290954589844,1031,1
227,quadbright,18.0,8,1,598.3259677886963,598.322868347168,855,1
228,quadbright,19.0,8,1,330.2650451660156,330.2631378173828,939,1
229,quadbright,20.0,8,0,530.3990840911865,530.3971767425537,1223,1
230,quadbright,21.0,14,1,492.05803871154785,492.05517768859863,1279,1
231,quadbright,22.0,8,0,497.1039295196533,497.1029758453369,1435,1
232,quadbright,23.0,14,1,497.5619316101074,497.5578784942627,1168,0
233,quadbright,23.0,14,1,495.0227737426758,495.0220584869385,928,1
234,quadbright,24.0,14,1,399.50108528137207,399.49989318847656,1324,1
235,quadbright,25.0,8,1,382.22312927246094,382.22312927246094,1091,1
236,quadbright,26.0,8,0,493.39795112609863,493.3929443359375,1263,1
237,quadbright,27.0,8,1,492.5670623779297,492.5649166107178,1263,1
238,quadbright,28.0,14,1,428.3490180969238,428.33900451660156,1032,1
239,quadbright,29.0,17,0,495.26500701904297,495.26000022888184,1176,1
240,quadbright,30.0,8,1,416.2728786468506,416.2719249725342,1353,1
241,quadbright,5.0,8,0,99.38502311706543,431.7450523376465,1228,1
242,quadbright,6.0,8,1,98.61397743225098,494.1401481628418,1351,1
243,quadbright,7.0,15,1,129.64463233947754,325.9718418121338,1192,1
244,quadbright,8.0,8,1,494.9491024017334,494.93908882141113,1125,1
245,quadbright,9.0,12,1,395.62416076660156,395.62225341796875,1164,1
246,quadbright,10.0,8,1,393.2781219482422,393.27526092529297,1170,1
247,quadbright,11.0,8,1,496.48404121398926,496.48094177246094,1357,1
248,quadbright,12.0,11,1,295.212984085083,295.2120304107666,1159,1
249,quadbright,13.0,8,1,296.8881130218506,296.8859672546387,1276,1
250,quadbright,14.0,8,1,701.8742561340332,701.8711566925049,1027,1
251,quadbright,15.0,8,1,300.10199546813965,300.09913444519043,1473,1
252,quadbright,16.0,14,1,491.6231632232666,491.6112422943115,1465,1
253,quadbright,17.0,8,1,495.77879905700684,495.776891708374,903,1
254,quadbright,18.0,8,1,495.29194831848145,495.29099464416504,872,1
255,quadbright,19.0,8,0,395.88093757629395,395.88022232055664,1001,1
256,quadbright,20.0,11,1,394.2720890045166,394.2699432373047,1372,1
257,quadbright,21.0,14,1,494.6460723876953,494.6451187133789,1357,1
258,quadbright,22.0,11,0,406.3839912414551,406.38113021850586,918,1
259,quadbright,23.0,12,0,495.20206451416016,495.19896507263184,1402,1
260,quadbright,24.0,14,0,509.1736316680908,509.1710090637207,1406,1
261,quadbright,25.0,8,0,595.4151153564453,595.4141616821289,1476,1
262,quadbright,26.0,11,1,693.505048751831,693.5019493103027,1180,1
263,quadbright,27.0,8,1,901.6211032867432,901.6180038452148,1429,1
264,quadbright,28.0,14,0,427.0589351654053,427.05726623535156,976,1
265,quadbright,29.0,18,1,426.12290382385254,426.1171817779541,1352,1
266,quadbright,30.0,8,1,527.5540351867676,527.5528430938721,1164,1
267,quadbright,5.0,11,1,97.03922271728516,426.4051914215088,980,1
268,quadbright,6.0,5,1,198.502779006958,594.0449237823486,1151,1
269,quadbright,7.0,15,1,399.83057975769043,399.8267650604248,1196,1
270,quadbright,8.0,5,1,483.1826686859131,483.1826686859131,1301,1
271,quadbright,9.0,12,1,98.94609451293945,934.3900680541992,1499,1
272,quadbright,10.0,5,1,497.25961685180664,497.255802154541,822,1
273,quadbright,11.0,5,0,99.09701347351074,901.5319347381592,886,1
274,quadbright,12.0,11,1,497.9379177093506,497.93386459350586,1030,1
275,quadbright,13.0,5,1,397.59278297424316,593.3868885040283,1463,1
276,quadbright,14.0,5,0,724.999189376831,724.9941825866699,1254,1
277,quadbright,15.0,5,0,625.5359649658203,625.5340576171875,877,1
278,quadbright,16.0,12,1,524.4390964508057,524.4321823120117,1105,1
279,quadbright,17.0,5,1,499.3910789489746,499.3858337402344,1110,1
280,quadbright,18.0,5,0,483.6719036102295,483.6711883544922,907,1
281,quadbright,19.0,11,1,397.57680892944336,397.57370948791504,1327,1
282,quadbright,20.0,11,1,507.1899890899658,507.1868896484375,982,1
283,quadbright,21.0,12,1,489.20488357543945,489.199161529541,1209,1
284,quadbright,22.0,14,1,481.8077087402344,481.80675506591797,1094,1
285,quadbright,23.0,14,0,693.4177875518799,693.4170722961426,806,1
286,quadbright,24.0,15,1,495.5110549926758,495.50914764404297,1042,1
287,quadbright,25.0,11,1,493.2260513305664,493.21985244750977,1189,1
288,quadbright,26.0,11,1,594.7608947753906,594.7587490081787,1430,1
289,quadbright,27.0,5,1,399.6419906616211,399.6410369873047,1305,1
290,quadbright,28.0,15,1,397.6879119873047,397.68314361572266,943,1
291,quadbright,29.0,18,1,493.32213401794434,493.3183193206787,1329,1
292,quadbright,30.0,5,0,482.8610420227051,482.85984992980957,1444,1
293,quadbright,5.0,11,1,493.32499504089355,493.32284927368164,1313,1
294,quadbright,6.0,5,1,100.68082809448242,411.06200218200684,1200,1
295,quadbright,7.0,14,1,305.45783042907715,305.4509162902832,991,1
296,quadbright,8.0,5,1,493.38793754577637,493.38412284851074,1202,1
297,quadbright,9.0,11,0,98.26993942260742,398.3738422393799,1233,1
298,quadbright,10.0,5,0,497.41530418395996,497.41125106811523,801,1
299,quadbright,11.0,8,1,583.3609104156494,583.3601951599121,933,0
300,quadbright,11.0,8,0,383.96215438842773,383.9612007141113,1238,1
301,quadbright,12.0,9,1,395.1900005340576,395.1880931854248,865,1
302,quadbright,13.0,5,1,426.24592781066895,426.2421131134033,1429,1
303,quadbright,14.0,8,1,528.7289619445801,528.7258625030518,1285,1
304,quadbright,15.0,8,1,496.53077125549316,496.52886390686035,1365,1
305,quadbright,16.0,12,1,494.59385871887207,494.59314346313477,1222,1
306,quadbright,17.0,5,1,597.8062152862549,597.8031158447266,1469,1
307,quadbright,18.0,8,1,495.1348304748535,495.1317310333252,1461,1
308,quadbright,19.0,11,1,528.3379554748535,528.3370018005371,1321,0
309,quadbright,19.0,11,1,398.8509178161621,398.8468647003174,1418,1
310,quadbright,20.0,9,1,296.4489459991455,296.4479923248291,977,1
311,quadbright,21.0,12,1,905.055046081543,905.052900314331,1439,1
312,quadbright,22.0,14,1,394.78015899658203,394.7770595550537,867,1
313,quadbright,23.0,15,1,527.9779434204102,527.9769897460938,1490,1
314,quadbright,24.0,15,0,428.42912673950195,428.42602729797363,1080,1
315,quadbright,25.0,11,1,529.1609764099121,529.1590690612793,1242,1
316,quadbright,26.0,9,1,495.5136775970459,495.5110549926758,938,1
317,quadbright,27.0,5,0,494.0831661224365,494.0800666809082,1282,1
318,quadbright,28.0,15,1,529.9310684204102,529.9279689788818,1066,1
319,quadbright,29.0,17,1,596.2929725646973,596.290111541748,1129,1
320,quadbright,30.0,8,0,495.7268238067627,495.7239627838135,1467,1
321,quadbright,5.0,9,1,395.72691917419434,395.72596549987793,1238,1
322,quadbright,6.0,2,0,99.17902946472168,498.01087379455566,1455,1
323,quadbright,7.0,14,1,436.2640380859375,436.25903129577637,927,1
324,quadbright,8.0,2,1,98.89006614685059,624.5801448822021,1268,1
325,quadbright,9.0,12,1,88.58203887939453,384.9771022796631,1338,1
326,quadbright,10.0,8,1,99.80201721191406,394.37198638916016,1181,0
327,quadbright,10.0,8,1,196.87199592590332,494.89593505859375,1013,1
328,quadbright,11.0,11,1,394.8540687561035,394.8512077331543,882,1
329,quadbright,12.0,9,1,395.63894271850586,395.63584327697754,976,1
330,quadbright,13.0,2,0,792.1562194824219,792.1543121337891,1283,1
331,quadbright,14.0,8,1,783.1821441650391,783.1799983978271,1127,1
332,quadbright,15.0,8,1,690.2761459350586,690.2740001678467,916,1
333,quadbright,16.0,11,1,494.16184425354004,494.1549301147461,1341,1
334,quadbright,17.0,2,1,515.3799057006836,515.3789520263672,855,1
335,quadbright,18.0,8,0,1124.0558624267578,1124.053955078125,1044,1
336,quadbright,19.0,9,0,406.3889980316162,406.3858985900879,1263,1
337,quadbright,20.0,9,0,394.15812492370605,394.150972366333,1161,1
338,quadbright,21.0,11,1,492.89965629577637,492.89488792419434,1091,1
339,quadbright,22.0,12,0,326.28798484802246,326.28583908081055,1214,1
340,quadbright,23.0,15,1,395.62416076660156,395.62010765075684,1162,1
341,quadbright,24.0,16,1,395.9159851074219,395.9159851074219,1360,1
342,quadbright,25.0,9,0,296.45586013793945,296.45276069641113,1096,1
343,quadbright,26.0,9,1,584.0210914611816,584.0189456939697,870,1
344,quadbright,27.0,8,1,492.9840564727783,492.9800033569336,894,1
345,quadbright,28.0,14,1,494.9970245361328,494.9958324432373,1225,1
346,quadbright,29.0,17,1,595.5748558044434,595.573902130127,1044,1
347,quadbright,30.0,11,1,495.07784843444824,495.07689476013184,1233,1
348,quadbright,5.0,9,1,98.8469123840332,594.153881072998,1443,1
349,quadbright,6.0,5,1,197.78203964233398,495.5410957336426,1358,1
350,quadbright,7.0,12,1,492.85197257995605,492.84815788269043,1023,1
351,quadbright,8.0,2,0,100.17991065979004,497.877836227417,828,1
352,quadbright,9.0,12,1,495.32580375671387,495.32485008239746,1057,1
353,quadbright,10.0,8,1,396.3427543640137,396.33798599243164,959,1
354,quadbright,11.0,11,1,1022.5307941436768,1022.5300788879395,1459,1
355,quadbright,12.0,8,0,302.69503593444824,302.685022354126,1165,1
356,quadbright,13.0,5,0,393.2380676269531,393.22900772094727,859,1
357,quadbright,14.0,6,1,497.4191188812256,497.41601943969727,1169,1
358,quadbright,15.0,6,1,492.6729202270508,492.66886711120605,1297,1
359,quadbright,16.0,11,1,492.94209480285645,492.9389953613281,1210,1
360,quadbright,17.0,2,0,603.672981262207,603.6708354949951,1454,1
361,quadbright,18.0,9,0,992.919921875,992.9180145263672,1452,1
362,quadbright,19.0,11,1,594.4478511810303,594.4468975067139,1305,1
363,quadbright,20.0,11,1,487.7970218658447,487.7939224243164,1033,1
364,quadbright,21.0,11,1,496.7918395996094,496.78897857666016,899,1
365,quadbright,22.0,14,1,493.0710792541504,493.06797981262207,1490,1
366,quadbright,23.0,14,1,493.757963180542,493.7570095062256,1415,1
367,quadbright,24.0,16,1,405.7350158691406,405.7300090789795,1406,1
368,quadbright,25.0,11,1,594.5122241973877,594.5112705230713,1239,1
369,quadbright,26.0,8,0,296.28896713256836,296.28586769104004,1360,1
370,quadbright,27.0,8,0,328.9968967437744,328.995943069458,1133,1
371,quadbright,28.0,14,1,425.3420829772949,425.3389835357666,1330,1
372,quadbright,29.0,16,1,494.1749572753906,494.1730499267578,1213,1
373,quadbright,30.0,11,0,296.065092086792,296.0641384124756,873,1
374,quadbright,5.0,8,0,96.91500663757324,285.459041595459,1023,1
375,quadbright,6.0,5,1,200.55508613586426,698.7934112548828,1481,1
376,quadbright,7.0,12,1,96.80509567260742,394.78111267089844,1255,1
377,quadbright,8.0,5,1,210.07585525512695,540.130615234375,1226,1
378,quadbright,9.0,11,1,395.5819606781006,395.5807685852051,961,1
379,quadbright,10.0,6,1,494.75717544555664,494.7531223297119,1328,1
380,quadbright,11.0,9,1,526.3900756835938,526.3869762420654,848,1
381,quadbright,12.0,9,1,400.1009464263916,400.097131729126,972,1
382,quadbright,13.0,8,1,593.9750671386719,593.97292137146,1164,1
383,quadbright,14.0,6,1,594.9060916900635,594.9039459228516,882,1
384,quadbright,15.0,6,1,394.3650722503662,394.3619728088379,1332,1
385,quadbright,16.0,9,1,591.2380218505859,591.2342071533203,993,1
386,quadbright,17.0,5,1,394.4203853607178,394.4120407104492,1378,1
387,quadbright,18.0,11,1,625.9989738464355,625.9908676147461,1386,1
388,quadbright,19.0,11,1,691.2438869476318,691.2376880645752,924,1
389,quadbright,20.0,11,1,524.6889591217041,524.6801376342773,1460,1
390,quadbright,21.0,9,1,528.3987522125244,528.3956527709961,1342,1
391,quadbright,22.0,14,0,823.8270282745361,823.8208293914795,1102,1
392,quadbright,23.0,14,0,626.2021064758301,626.1999607086182,1021,1
393,quadbright,24.0,15,0,625.4987716674805,625.4956722259521,1031,1
394,quadbright,25.0,11,1,591.7797088623047,591.7708873748779,1316,1
395,quadbright,26.0,9,0,693.7777996063232,693.7758922576904,1068,0
396,quadbright,26.0,9,1,602.1289825439453,602.1270751953125,1047,1
397,quadbright,27.0,9,0,394.6242332458496,394.6189880371094,1335,1
