trial,condition,eccentricity,magnitude,correct,srt_ms,keyboard_rt_ms,pre_change_ms,valid
1,control,5.0,20,1,97.86629676818848,692.3573017120361,1359,1
2,control,6.0,20,1,98.40011596679688,493.9892292022705,1185,1
3,control,7.0,20,1,99.71189498901367,495.26095390319824,834,1
4,control,8.0,20,1,497.2691535949707,497.2653388977051,1256,1
5,control,9.0,20,1,99.09796714782715,803.6549091339111,1054,1
6,control,10.0,20,1,496.2739944458008,496.26803398132324,1003,1
7,control,11.0,20,1,495.97620964050293,495.974063873291,921,1
8,control,12.0,20,1,614.8838996887207,614.8831844329834,1113,1
9,control,13.0,20,1,493.7877655029297,493.78299713134766,866,1
10,control,14.0,20,1,682.2459697723389,682.2450160980225,1136,1
11,control,15.0,20,1,493.5188293457031,493.5150146484375,1117,1
12,control,16.0,20,1,404.76417541503906,404.75988388061523,880,1
13,control,17.0,20,1,594.688892364502,594.6829319000244,1207,1
14,control,18.0,20,1,1694.1688060760498,1694.1628456115723,1497,1
15,control,19.0,20,1,494.8849678039551,494.87900733947754,888,1
16,control,20.0,20,1,593.3010578155518,593.2981967926025,1276,1
17,control,21.0,20,1,494.5850372314453,494.57788467407227,1414,1
18,control,22.0,20,1,493.0739402770996,493.06797981262207,1101,1
19,control,23.0,20,1,880.6159496307373,880.6149959564209,1415,1
20,control,24.0,20,1,583.3983421325684,583.3971500396729,1456,1
21,control,25.0,20,1,502.86221504211426,502.86006927490234,1174,1
22,control,26.0,20,1,494.8768615722656,494.8759078979492,1373,1
23,control,27.0,20,1,593.8830375671387,593.878984451294,1193,0
24,control,27.0,20,1,495.1350688934326,495.1338768005371,1313,1
25,control,28.0,20,1,494.92812156677246,494.92716789245605,1469,1
26,control,29.0,20,1,499.57799911499023,499.5729923248291,1424,1
27,control,30.0,20,1,531.08811378479,531.0828685760498,1154,1
28,control,5.0,20,1,101.73821449279785,504.8072338104248,1230,1
29,control,6.0,20,1,200.90913772583008,496.67906761169434,1326,1
30,control,7.0,20,1,99.19500350952148,604.949951171875,1038,1
31,control,8.0,20,1,98.71411323547363,596.6629981994629,1091,1
32,control,9.0,20,1,624.6740818023682,624.671220779419,1239,1
33,control,10.0,20,1,525.550127029419,525.5460739135742,1255,1
34,control,11.0,20,1,493.97873878479004,493.9746856689453,950,1
35,control,12.0,20,1,299.8690605163574,403.0420780181885,1261,1
36,control,13.0,20,1,503.60703468322754,503.6039352416992,1276,1
37,control,14.0,20,1,493.59798431396484,493.5910701751709,1044,1
38,control,15.0,20,1,494.2820072174072,494.2812919616699,1249,1
39,control,16.0,20,1,1177.4420738220215,1177.440881729126,1382,1
40,control,17.0,20,1,695.6779956817627,695.6727504730225,882,1
41,control,18.0,20,1,495.55110931396484,495.55015563964844,1004,1
42,control,19.0,20,1,583.7571620941162,583.7559700012207,960,1
43,control,20.0,20,1,594.7449207305908,594.7370529174805,1478,1
44,control,21.0,20,1,584.2609405517578,584.2597484588623,955,1
45,control,22.0,20,1,526.1750221252441,526.1678695678711,838,1
46,control,23.0,20,1,594.6102142333984,594.6071147918701,834,1
47,control,24.0,20,1,601.3908386230469,601.3839244842529,1342,1
48,control,25.0,20,1,395.42412757873535,395.4198360443115,927,1
49,control,26.0,20,1,494.110107421875,494.1070079803467,1393,1
50,control,27.0,20,1,494.5080280303955,494.5070743560791,921,1
51,control,28.0,20,1,495.006799697876,494.9970245361328,843,1
52,control,29.0,20,1,485.3100776672363,485.3088855743408,1099,1
53,control,30.0,20,1,493.79706382751465,493.7939643859863,1087,1
54,control,5.0,17,1,99.7769832611084,494.29988861083984,816,1
55,control,6.0,17,1,692.8796768188477,692.878007888794,1223,1
56,control,7.0,17,1,100.1291275024414,426.9523620605469,1289,1
57,control,8.0,17,1,100.53181648254395,426.24783515930176,1393,1
58,control,9.0,17,1,605.5448055267334,605.5421829223633,1105,1
59,control,10.0,17,1,692.3551559448242,692.3482418060303,882,1
60,control,11.0,17,1,297.1839904785156,494.16279792785645,1357,1
61,control,12.0,17,1,395.9662914276123,395.963191986084,959,1
62,control,13.0,17,1,492.2058582305908,492.2008514404297,1269,1
63,control,14.0,17,1,405.77173233032227,405.76791763305664,834,1
64,control,15.0,17,1,495.1198101043701,495.1169490814209,885,1
65,control,16.0,17,1,593.3718681335449,593.3656692504883,1495,1
66,control,17.0,17,1,494.5399761199951,494.537353515625,849,1
67,control,18.0,17,1,485.25476455688477,485.25381088256836,1242,1
68,control,19.0,17,1,493.2548999786377,493.2529926300049,1291,1
69,control,20.0,17,1,505.2218437194824,505.2180290222168,1389,1
70,control,21.0,17,1,493.9229488372803,493.91818046569824,1492,1
71,control,22.0,17,1,526.6189575195312,526.6139507293701,1211,1
72,control,23.0,17,1,524.346113204956,524.3372917175293,1474,1
73,control,24.0,17,1,427.6080131530762,427.6080131530762,1023,1
74,control,25.0,17,1,523.6396789550781,523.6387252807617,1296,1
75,control,26.0,17,1,486.3412380218506,486.3390922546387,978,1
76,control,27.0,17,1,503.19576263427734,503.1929016113281,919,1
77,control,28.0,17,1,493.87526512145996,493.87121200561523,872,1
78,control,29.0,17,1,394.5460319519043,394.53816413879395,1422,1
79,control,30.0,17,1,495.06688117980957,495.06592750549316,1086,1
80,control,5.0,17,0,98.95682334899902,496.4029788970947,1168,1
81,control,6.0,17,1,99.19071197509766,495.9099292755127,1365,1
82,control,7.0,17,1,96.01211547851562,516.1290168762207,855,1
83,control,8.0,17,1,98.6478328704834,1712.486982345581,919,1
84,control,9.0,17,1,98.18577766418457,485.39185523986816,903,1
85,control,10.0,17,1,790.5967235565186,790.5929088592529,1047,1
86,control,11.0,17,1,603.0421257019043,603.039026260376,1493,1
87,control,12.0,17,1,494.4489002227783,494.4489002227783,1500,1
88,control,13.0,17,1,526.6430377960205,526.6420841217041,1190,1
89,control,14.0,17,1,516.909122467041,516.9081687927246,1349,1
90,control,15.0,17,1,493.9990043640137,493.9918518066406,1224,1
91,control,16.0,17,1,485.33082008361816,485.32986640930176,893,1
92,control,17.0,17,1,494.5721626281738,494.5693016052246,1299,1
93,control,18.0,17,1,493.8969612121582,493.8948154449463,1052,1
94,control,19.0,17,1,395.89405059814453,395.8921432495117,1357,1
95,control,20.0,17,1,492.6779270172119,492.6750659942627,938,1
96,control,21.0,17,1,424.5741367340088,424.56722259521484,899,1
97,control,22.0,17,1,530.7810306549072,530.7788848876953,1025,1
98,control,23.0,17,1,499.56512451171875,499.56202507019043,1344,1
99,control,24.0,17,1,1715.6877517700195,1715.6867980957031,1037,1
100,control,25.0,17,1,493.67690086364746,493.6718940734863,1265,1
101,control,26.0,17,1,494.00806427001953,494.0018653869629,889,1
102,control,27.0,17,1,492.3701286315918,492.36488342285156,1440,1
103,control,28.0,17,1,425.69708824157715,425.6927967071533,825,1
104,control,29.0,17,1,493.90411376953125,493.8979148864746,1344,1
105,control,30.0,17,1,493.729829788208,493.7269687652588,1377,1
106,control,5.0,20,1,98.89912605285645,428.1601905822754,877,1
107,control,6.0,14,1,98.98209571838379,394.65999603271484,1133,1
108,control,7.0,14,1,99.0140438079834,527.0352363586426,1257,1
109,control,8.0,14,1,486.6507053375244,486.649751663208,1464,1
110,control,9.0,14,1,296.083927154541,496.0970878601074,1296,1
111,control,10.0,14,1,394.9739933013916,394.96612548828125,1263,1
112,control,11.0,14,1,386.6748809814453,386.6739273071289,1431,1
113,control,12.0,14,1,395.2779769897461,395.2770233154297,1067,1
114,control,13.0,14,1,494.7378635406494,494.7352409362793,1276,1
115,control,14.0,14,1,485.198974609375,485.1980209350586,975,1
116,control,15.0,14,1,425.7678985595703,425.7626533508301,1442,1
117,control,16.0,14,1,527.036190032959,527.0352363586426,805,1
118,control,17.0,14,1,585.529088973999,585.5281352996826,1124,1
119,control,18.0,14,1,526.843786239624,526.8428325653076,1240,1
120,control,19.0,14,1,428.0657768249512,428.06506156921387,1303,1
121,control,20.0,14,1,524.0950584411621,524.0869522094727,1477,1
122,control,21.0,14,1,490.80705642700195,490.80514907836914,912,1
123,control,22.0,14,1,395.31922340393066,395.31803131103516,861,1
124,control,23.0,14,1,593.2600498199463,593.256950378418,1160,1
125,control,24.0,14,1,892.056941986084,892.0559883117676,1466,1
126,control,25.0,14,1,493.6702251434326,493.66307258605957,1186,1
127,control,26.0,14,1,493.5650825500488,493.5622215270996,820,1
128,control,27.0,14,1,494.80700492858887,494.80605125427246,1300,1
129,control,28.0,14,1,394.9871063232422,394.9849605560303,845,1
130,control,29.0,14,1,1109.4341278076172,1109.4331741333008,908,1
131,control,30.0,14,0,1208.5821628570557,1208.5812091827393,849,1
132,control,5.0,20,1,98.25825691223145,403.67627143859863,935,1
133,control,6.0,14,1,99.65181350708008,394.1788673400879,1006,1
134,control,7.0,14,1,299.67713356018066,593.6660766601562,1257,1
135,control,8.0,14,1,99.13206100463867,395.4951763153076,879,1
136,control,9.0,14,1,98.3419418334961,395.2219486236572,1268,1
137,control,10.0,14,1,395.7550525665283,395.7540988922119,1475,1
138,control,11.0,14,1,1130.47194480896,1130.4688453674316,1482,1
139,control,12.0,14,1,1088.2492065429688,1088.2439613342285,1455,1
140,control,13.0,14,1,393.77617835998535,393.77307891845703,1080,1
141,control,14.0,14,1,1189.0721321105957,1189.0711784362793,1205,1
142,control,15.0,14,1,594.9358940124512,594.9318408966064,838,1
143,control,16.0,14,1,623.7261295318604,623.7173080444336,1079,1
144,control,17.0,14,1,722.4733829498291,722.4640846252441,1188,1
145,control,18.0,14,1,395.9081172943115,395.9038257598877,1284,1
146,control,19.0,14,1,493.22009086608887,493.21603775024414,934,1
147,control,20.0,14,1,594.9881076812744,594.9819087982178,1253,1
148,control,21.0,14,1,790.8468246459961,790.841817855835,893,1
149,control,22.0,14,1,494.718074798584,494.71402168273926,1128,1
150,control,23.0,14,0,1682.2688579559326,1682.2681427001953,1301,0
151,control,23.0,14,1,1580.7440280914307,1580.7409286499023,896,1
152,control,24.0,14,1,394.62876319885254,394.6208953857422,1117,1
153,control,25.0,14,1,603.5740375518799,603.5709381103516,1172,1
154,control,26.0,14,1,493.02077293395996,493.01695823669434,1388,1
155,control,27.0,14,1,504.7481060028076,504.7440528869629,1116,1
156,control,28.0,14,1,504.3048858642578,504.3017864227295,1483,1
157,control,29.0,14,1,592.8597450256348,592.85569190979,1150,1
158,control,30.0,17,0,1178.9329051971436,1178.9319515228271,1408,1
159,control,5.0,18,1,98.7849235534668,395.13182640075684,910,1
160,control,6.0,11,1,483.6559295654297,483.6549758911133,1046,0
161,control,6.0,11,1,99.26795959472656,493.92199516296387,1379,1
162,control,7.0,11,1,166.84627532958984,594.6919918060303,1176,1
163,control,8.0,11,1,296.8282699584961,494.83513832092285,1308,1
164,control,9.0,11,1,199.1269588470459,395.953893661499,1305,1
165,control,10.0,11,1,484.75170135498047,484.75074768066406,803,1
166,control,11.0,11,1,494.66919898986816,494.66419219970703,968,1
167,control,12.0,11,1,496.11902236938477,496.11496925354004,1187,1
168,control,13.0,11,1,593.4550762176514,593.4500694274902,1456,1
169,control,14.0,11,1,524.418830871582,524.4109630584717,1238,1
170,control,15.0,11,1,494.88067626953125,494.87876892089844,1277,1
171,control,16.0,11,1,427.8271198272705,427.8252124786377,1153,1
172,control,17.0,11,1,495.2988624572754,495.2967166900635,1175,1
173,control,18.0,11,1,394.44899559020996,394.4418430328369,1426,1
174,control,19.0,11,1,684.6029758453369,684.6020221710205,1465,1
175,control,20.0,11,1,394.5200443267822,394.5178985595703,1026,1
176,control,21.0,11,1,524.5199203491211,524.5189666748047,1123,1
177,control,22.0,11,1,494.31395530700684,494.3118095397949,1175,1
178,control,23.0,11,1,395.07412910461426,395.07102966308594,1137,1
179,control,24.0,11,1,495.0389862060547,495.03374099731445,1177,1
180,control,25.0,11,1,595.7918167114258,595.7870483398438,1359,1
181,control,26.0,11,1,496.31404876708984,496.31404876708984,1180,1
182,control,27.0,11,1,485.37492752075195,485.37397384643555,1299,1
183,control,28.0,11,1,494.9038028717041,494.9009418487549,1154,1
184,control,29.0,11,1,1186.0747337341309,1186.0690116882324,986,1
185,control,30.0,20,1,1098.5779762268066,1098.5727310180664,1209,1
186,control,5.0,18,1,129.74882125854492,425.75812339782715,980,1
187,control,6.0,11,1,100.10290145874023,494.98820304870605,1293,1
188,control,7.0,11,1,99.12395477294922,393.56493949890137,1406,1
189,control,8.0,11,1,98.73008728027344,1578.9251327514648,1287,1
190,control,9.0,11,1,198.41718673706055,394.80018615722656,1324,1
191,control,10.0,11,0,100.20780563354492,1871.5648651123047,1385,1
192,control,11.0,11,1,713.8547897338867,713.8538360595703,1260,1
193,control,12.0,11,1,197.16811180114746,492.9022789001465,858,1
194,control,13.0,11,1,622.840166091919,622.8370666503906,968,1
195,control,14.0,11,1,395.10130882263184,395.0982093811035,1208,1
196,control,15.0,11,1,393.7489986419678,393.74685287475586,974,1
197,control,16.0,11,0,702.2671699523926,702.2652626037598,1400,1
198,control,17.0,11,1,494.63796615600586,494.63391304016113,1408,1
199,control,18.0,11,1,590.238094329834,590.2290344238281,1302,1
200,control,19.0,11,1,394.69289779663086,394.6869373321533,1133,1
201,control,20.0,11,1,397.11999893188477,397.11475372314453,844,1
202,control,21.0,11,1,493.7572479248047,493.75104904174805,1174,1
203,control,22.0,11,1,396.14415168762207,396.14319801330566,1179,1
204,control,23.0,11,1,494.9491024017334,494.9471950531006,1263,1
205,control,24.0,11,1,486.01484298706055,486.01388931274414,947,1
206,control,25.0,11,1,502.8877258300781,502.8836727142334,855,1
207,control,26.0,11,1,592.0162200927734,592.015266418457,1325,1
208,control,27.0,11,1,494.88210678100586,494.88091468811035,1371,1
209,control,28.0,11,1,691.6131973266602,691.608190536499,1086,1
210,control,29.0,11,1,494.4589138031006,494.45104598999023,817,1
211,control,30.0,20,1,498.13389778137207,498.121976852417,1066,1
212,control,5.0,17,1,101.27687454223633,503.5557746887207,1339,1
213,control,6.0,8,1,99.25699234008789,494.002103805542,1381,1
214,control,7.0,8,1,99.09391403198242,1089.829921722412,1429,1
215,control,8.0,8,1,197.5266933441162,492.8629398345947,1369,1
216,control,9.0,8,1,394.686222076416,394.6831226348877,852,1
217,control,10.0,14,1,427.2727966308594,427.27184295654297,913,1
218,control,11.0,8,1,427.3841381072998,427.3829460144043,1421,0
219,control,11.0,8,1,485.2430820465088,485.2421283721924,816,1
220,control,12.0,8,1,393.826961517334,393.81980895996094,902,1
221,control,13.0,8,1,395.5538272857666,395.54905891418457,1490,1
222,control,14.0,8,1,395.4648971557617,395.4617977142334,1179,1
223,control,15.0,8,1,493.8671588897705,493.8621520996094,960,1
224,control,16.0,14,1,397.74489402770996,397.74394035339355,1077,1
225,control,17.0,8,0,991.0891056060791,991.0871982574463,1034,1
226,control,18.0,8,1,494.74096298217773,494.7390556335449,1156,1
227,control,19.0,8,1,496.0341453552246,496.02818489074707,1225,1
228,control,20.0,8,1,494.718074798584,494.71211433410645,1362,1
229,control,21.0,8,1,494.5049285888672,494.5039749145508,863,1
230,control,22.0,8,1,523.3280658721924,523.3249664306641,887,1
231,control,23.0,8,0,931.1947822570801,931.1916828155518,1456,1
232,control,24.0,8,1,791.8736934661865,791.8727397918701,1014,1
233,control,25.0,8,0,1088.9739990234375,1088.9687538146973,1073,1
234,control,26.0,8,0,1387.9878520965576,1387.9868984222412,1339,1
235,control,27.0,8,0,701.221227645874,701.2181282043457,1415,1
236,control,28.0,8,1,692.061185836792,692.0549869537354,1230,1
237,control,29.0,8,0,493.71910095214844,493.71910095214844,1094,1
238,control,30.0,18,1,713.0837440490723,713.0827903747559,1159,1
239,control,5.0,17,1,495.0392246246338,495.03397941589355,996,1
240,control,6.0,8,1,493.5879707336426,493.58320236206055,1087,1
241,control,7.0,8,1,395.7839012145996,395.7831859588623,1496,1
242,control,8.0,8,1,99.62201118469238,397.1230983734131,1133,1
243,control,9.0,8,1,493.8318729400635,493.82710456848145,1030,1
244,control,10.0,14,1,396.75426483154297,396.75211906433105,1374,1
245,control,11.0,8,1,496.66666984558105,496.6578483581543,1240,1
246,control,12.0,8,1,494.7378635406494,494.7080612182617,1242,1
247,control,13.0,8,1,622.3249435424805,622.3220825195312,1210,1
248,control,14.0,8,1,429.5189380645752,429.5179843902588,990,1
249,control,15.0,8,0,297.6410388946533,297.637939453125,993,1
250,control,16.0,14,1,395.841121673584,395.8401679992676,1274,1
251,control,17.0,11,1,396.1670398712158,396.1629867553711,1423,1
252,control,18.0,8,1,1089.2810821533203,1089.277982711792,1063,1
253,control,19.0,8,1,504.22191619873047,504.21667098999023,1374,1
254,control,20.0,8,1,404.5400619506836,404.5381546020508,1347,1
255,control,21.0,8,1,494.661808013916,494.661808013916,825,1
256,control,22.0,8,1,493.49403381347656,493.49093437194824,916,1
257,control,23.0,11,1,387.3770236968994,387.3758316040039,1375,1
258,control,24.0,8,1,493.4670925140381,493.4577941894531,969,1
259,control,25.0,11,1,396.15416526794434,396.1522579193115,1339,1
260,control,26.0,11,1,525.9590148925781,525.9530544281006,1036,1
261,control,27.0,11,1,517.0660018920898,517.064094543457,1460,1
262,control,28.0,8,1,724.128007888794,724.125862121582,932,1
263,control,29.0,11,0,1383.7900161743164,1383.7881088256836,823,1
264,control,30.0,18,1,600.8179187774658,600.8081436157227,1348,1
265,control,5.0,15,1,98.90890121459961,494.51279640197754,940,1
266,control,6.0,5,1,99.1828441619873,496.229887008667,1356,1
267,control,7.0,5,1,403.09715270996094,403.0928611755371,1409,1
268,control,8.0,5,1,198.4419822692871,394.8850631713867,808,1
269,control,9.0,5,1,395.6160545349121,395.6151008605957,1304,1
270,control,10.0,12,1,395.29991149902344,395.2977657318115,1123,1
271,control,11.0,5,1,1520.0841426849365,1520.0791358947754,1460,1
272,control,12.0,5,1,98.9990234375,484.2700958251953,811,1
273,control,13.0,5,1,497.5171089172363,497.5161552429199,1015,1
274,control,14.0,5,1,492.3381805419922,492.33293533325195,1377,1
275,control,15.0,11,0,1912.2891426086426,1912.2862815856934,1108,1
276,control,16.0,12,1,492.6490783691406,492.6419258117676,1097,1
277,control,17.0,11,1,494.3361282348633,494.33326721191406,980,1
278,control,18.0,5,1,691.8790340423584,691.8721199035645,1378,1
279,control,19.0,5,1,1011.8100643157959,1011.8088722229004,1225,1
280,control,20.0,5,0,832.2992324829102,832.2980403900146,963,1
281,control,21.0,5,1,899.9669551849365,899.9638557434082,869,1
282,control,22.0,5,0,890.60378074646,890.6030654907227,1157,1
283,control,23.0,11,1,691.6022300720215,691.5991306304932,1184,1
284,control,24.0,5,1,888.7631893157959,888.7591361999512,1047,1
285,control,25.0,11,1,495.3022003173828,495.3012466430664,1334,1
286,control,26.0,11,1,791.5866374969482,791.5856838226318,1396,1
287,control,27.0,11,0,979.3679714202881,979.3670177459717,1113,1
288,control,28.0,5,0,923.8271713256836,923.8271713256836,1295,1
289,control,29.0,14,0,790.0810241699219,790.0781631469727,844,1
290,control,30.0,17,0,1119.9400424957275,1119.9331283569336,1180,1
291,control,5.0,15,1,98.97613525390625,395.6573009490967,1139,1
292,control,6.0,5,1,197.404146194458,395.04313468933105,1014,1
293,control,7.0,5,1,493.72005462646484,493.71790885925293,1003,1
294,control,8.0,5,1,198.8201141357422,494.37808990478516,1087,1
295,control,9.0,5,1,99.0149974822998,692.9512023925781,1396,1
296,control,10.0,12,1,493.15690994262695,493.15381050109863,1137,1
297,control,11.0,5,1,396.1758613586426,396.17109298706055,849,1
298,control,12.0,5,1,395.8001136779785,395.7948684692383,885,0
299,control,12.0,5,1,492.3248291015625,492.3229217529297,862,1
300,control,13.0,5,1,493.6702251434326,493.6680793762207,968,1
301,control,14.0,5,1,1387.1619701385498,1387.1588706970215,1426,1
302,control,15.0,14,1,491.3761615753174,491.37306213378906,1119,1
303,control,16.0,12,1,428.0571937561035,428.0550479888916,1294,1
304,control,17.0,9,1,494.31300163269043,494.29893493652344,1092,1
305,control,18.0,5,1,492.74492263793945,492.7411079406738,1334,1
306,control,19.0,5,1,492.63882637023926,492.6340579986572,1492,1
307,control,20.0,8,1,780.4889678955078,780.4880142211914,882,1
308,control,21.0,5,0,895.2159881591797,895.211935043335,806,1
309,control,22.0,8,1,494.7340488433838,494.7330951690674,1045,1
310,control,23.0,9,1,581.5291404724121,581.5279483795166,1229,1
311,control,24.0,5,1,988.1601333618164,988.1560802459717,1280,1
312,control,25.0,9,1,592.1289920806885,592.1239852905273,1406,1
313,control,26.0,9,1,495.46313285827637,495.46003341674805,1017,1
314,control,27.0,12,1,494.87876892089844,494.8740005493164,1441,1
315,control,28.0,8,1,592.9920673370361,592.9901599884033,941,1
316,control,29.0,17,1,493.070125579834,493.06321144104004,913,1
317,control,30.0,18,1,493.35598945617676,493.35408210754395,1173,1
318,control,5.0,14,1,96.21405601501465,394.1361904144287,1358,1
319,control,6.0,2,0,99.47419166564941,801.5360832214355,829,1
320,control,7.0,2,1,95.81804275512695,1779.6521186828613,960,1
321,control,8.0,2,0,99.53689575195312,1198.636770248413,1236,1
322,control,9.0,2,1,790.5681133270264,790.5588150024414,984,0
323,control,9.0,2,1,793.7381267547607,793.7362194061279,1372,1
324,control,10.0,11,1,99.58195686340332,395.1528072357178,1344,1
325,control,11.0,2,0,1220.3021049499512,1220.3009128570557,1205,1
326,control,12.0,2,0,911.8010997772217,911.7989540100098,1377,1
327,control,13.0,2,1,98.98805618286133,494.3230152130127,1041,1
328,control,14.0,2,1,582.4291706085205,582.4282169342041,963,1
329,control,15.0,14,1,592.38600730896,592.3829078674316,1362,1
330,control,16.0,11,1,494.4729804992676,494.46916580200195,1425,1
331,control,17.0,9,1,503.29017639160156,503.2839775085449,941,1
332,control,18.0,2,1,689.0978813171387,689.0957355499268,1085,1
333,control,19.0,2,1,791.1291122436523,791.126012802124,852,1
334,control,20.0,8,1,527.055025100708,527.0500183105469,822,1
335,control,21.0,8,1,494.4262504577637,494.42315101623535,992,1
336,control,22.0,8,1,494.9991703033447,494.9991703033447,1187,1
337,control,23.0,9,1,493.7868118286133,493.77989768981934,1341,1
338,control,24.0,2,1,684.2570304870605,684.255838394165,821,1
339,control,25.0,9,0,696.7148780822754,696.713924407959,933,1
340,control,26.0,9,1,505.3279399871826,505.3248405456543,1467,1
341,control,27.0,12,1,495.06115913391113,495.0599670410156,1176,1
342,control,28.0,8,0,1286.4172458648682,1286.4151000976562,1208,1
343,control,29.0,17,1,692.0821666717529,692.0750141143799,804,1
344,control,30.0,18,1,494.1439628601074,494.1408634185791,995,1
345,control,5.0,14,1,99.72500801086426,1021.8632221221924,827,1
346,control,6.0,5,1,97.02181816101074,910.8951091766357,1464,1
347,control,7.0,2,1,99.55596923828125,493.8948154449463,1196,1
348,control,8.0,5,1,492.68603324890137,492.68198013305664,1220,1
349,control,9.0,2,1,198.33683967590332,691.8389797210693,1108,1
350,control,10.0,11,1,393.88322830200195,393.8770294189453,1422,1
351,control,11.0,5,0,714.7438526153564,714.7431373596191,980,1
352,control,12.0,5,0,219.1469669342041,614.5408153533936,1391,1
353,control,13.0,2,0,537.7559661865234,537.7480983734131,1270,1
354,control,14.0,2,1,1022.1481323242188,1022.1409797668457,848,1
355,control,15.0,12,0,638.9908790588379,638.9880180358887,1313,1
356,control,16.0,11,0,780.458927154541,780.4579734802246,941,1
357,control,17.0,8,1,495.3341484069824,495.3320026397705,829,1
358,control,18.0,2,1,725.416898727417,725.4159450531006,1308,1
359,control,19.0,2,1,592.8709506988525,592.8628444671631,1411,0
360,control,19.0,2,1,692.9740905761719,692.9731369018555,1377,1
361,control,20.0,6,1,692.1370029449463,692.1250820159912,1290,1
362,control,21.0,8,1,496.1881637573242,496.1872100830078,1114,1
363,control,22.0,6,1,526.2830257415771,526.2792110443115,992,1
364,control,23.0,8,1,483.1509590148926,483.1500053405762,1153,1
365,control,24.0,2,0,594.5248603820801,594.520092010498,912,1
366,control,25.0,11,1,495.12767791748047,495.12696266174316,1117,1
367,control,26.0,8,1,494.4319725036621,494.4279193878174,1339,1
368,control,27.0,11,1,485.23998260498047,485.23902893066406,1407,1
369,control,28.0,9,1,692.4500465393066,692.4469470977783,856,1
370,control,29.0,15,1,483.076810836792,483.076810836792,857,1
371,control,30.0,17,1,503.85212898254395,503.8430690765381,986,1
372,control,5.0,12,1,99.80082511901855,396.3968753814697,1441,1
373,control,6.0,5,1,99.01189804077148,296.38099670410156,1334,1
374,control,7.0,1,0,295.957088470459,988.8319969177246,1357,1
375,control,8.0,5,1,98.29878807067871,492.7077293395996,1391,1
376,control,9.0,1,0,792.3898696899414,792.388916015625,1221,1
377,control,10.0,9,1,97.81670570373535,385.8046531677246,909,1
378,control,11.0,8,1,393.97287368774414,393.9657211303711,861,1
379,control,12.0,8,1,296.37718200683594,394.80018615722656,1039,1
380,control,13.0,5,0,591.8900966644287,591.8831825256348,1366,1
381,control,14.0,1,0,790.7781600952148,790.7741069793701,988,1
382,control,15.0,14,1,427.33192443847656,427.33001708984375,854,1
383,control,16.0,12,1,691.1098957061768,691.1029815673828,1179,1
384,control,17.0,8,0,592.9899215698242,592.9861068725586,1322,1
385,control,18.0,1,0,593.0700302124023,593.066930770874,1041,1
386,control,19.0,1,0,593.7011241912842,593.7001705169678,1084,1
387,control,20.0,6,0,603.9609909057617,603.9559841156006,1026,1
388,control,21.0,6,1,791.6507720947266,791.6457653045654,1414,1
389,control,22.0,6,1,702.296257019043,702.2910118103027,1430,1
390,control,23.0,8,1,394.6690559387207,394.6659564971924,1426,1
391,control,24.0,5,1,1099.0149974822998,1099.0090370178223,1197,1
392,control,25.0,11,1,493.87407302856445,493.87097358703613,1143,1
393,control,26.0,8,0,594.0408706665039,594.0370559692383,1267,1
394,control,27.0,11,0,890.7301425933838,890.7248973846436,817,0
1,quadbright,5.0,20,1,99.81393814086914,791.5220260620117,804,0
2,quadbright,5.0,20,1,98.49095344543457,395.34592628479004,1037,1
3,quadbright,6.0,20,1,397.2949981689453,595.252275466919,1021,1
4,quadbright,7.0,20,1,493.3009147644043,493.29686164855957,933,1
5,quadbright,8.0,20,1,99.57194328308105,387.7859115600586,1359,1
6,quadbright,9.0,20,1,404.80899810791016,404.8027992248535,1438,1
7,quadbright,10.0,20,1,493.71790885925293,493.7169551849365,821,1
8,quadbright,11.0,20,1,396.50630950927734,396.50511741638184,1270,1
9,quadbright,12.0,20,1,99.18212890625,494.2901134490967,1189,1
10,quadbright,13.0,20,1,396.04711532592773,396.0459232330322,1193,1
11,quadbright,14.0,20,1,495.175838470459,495.1739311218262,1216,1
12,quadbright,15.0,20,1,494.72522735595703,494.7230815887451,1023,1
13,quadbright,16.0,20,1,495.3198432922363,495.3150749206543,984,1
14,quadbright,17.0,20,1,524.4641304016113,524.4641304016113,1378,1
15,quadbright,18.0,20,1,494.80295181274414,494.80199813842773,930,1
16,quadbright,19.0,20,1,1078.690767288208,1078.6898136138916,922,1
17,quadbright,20.0,20,1,494.9460029602051,494.9357509613037,917,1
18,quadbright,21.0,20,1,495.09382247924805,495.0900077819824,1375,1
19,quadbright,22.0,20,1,503.7403106689453,503.73029708862305,964,1
20,quadbright,23.0,20,1,1394.7951793670654,1394.792079925537,1083,1
21,quadbright,24.0,20,1,681.5078258514404,681.506872177124,937,1
22,quadbright,25.0,20,1,493.61681938171387,493.6108589172363,1399,1
23,quadbright,26.0,20,1,395.02620697021484,395.0231075286865,1067,1
24,quadbright,27.0,20,1,416.60499572753906,416.60404205322266,1034,1
25,quadbright,28.0,20,1,427.1869659423828,427.1848201751709,871,1
26,quadbright,29.0,20,1,594.7389602661133,594.7368144989014,1334,1
27,quadbright,30.0,20,1,591.2961959838867,591.2919044494629,1009,1
28,quadbright,5.0,20,1,523.7460136413574,523.7412452697754,1057,1
29,quadbright,6.0,20,1,98.42395782470703,588.7389183044434,883,1
30,quadbright,7.0,20,1,98.9677906036377,526.806116104126,1353,1
31,quadbright,8.0,20,1,99.82585906982422,494.2479133605957,1123,1
32,quadbright,9.0,20,1,98.8149642944336,494.7929382324219,947,1
33,quadbright,10.0,20,1,296.1711883544922,523.7240791320801,1359,1
34,quadbright,11.0,20,1,198.0893611907959,605.5212020874023,862,1
35,quadbright,12.0,20,1,722.4879264831543,722.4810123443604,1161,1
36,quadbright,13.0,20,1,505.9700012207031,505.9638023376465,1033,1
37,quadbright,14.0,20,1,604.773759841919,604.7720909118652,1180,1
38,quadbright,15.0,20,1,534.3780517578125,534.3749523162842,1199,1
39,quadbright,16.0,20,0,99.23982620239258,1872.3671436309814,1288,0
40,quadbright,16.0,20,0,1712.0161056518555,1712.0130062103271,1075,1
41,quadbright,17.0,20,1,496.1268901824951,496.11902236938477,1304,1
42,quadbright,18.0,20,1,1375.8440017700195,1375.842809677124,1382,1
43,quadbright,19.0,20,1,492.6893711090088,492.68198013305664,1306,1
44,quadbright,20.0,20,0,1296.3359355926514,1296.332836151123,1419,1
45,quadbright,21.0,20,1,494.736909866333,494.7347640991211,1413,1
46,quadbright,22.0,20,1,494.2440986633301,494.24099922180176,1012,1
47,quadbright,23.0,20,1,494.81797218322754,494.81701850891113,1312,1
48,quadbright,24.0,20,1,1031.2252044677734,1031.2199592590332,1127,1
49,quadbright,25.0,20,1,1911.5018844604492,1911.4949703216553,1421,1
50,quadbright,26.0,20,1,691.3812160491943,691.3800239562988,1342,1
51,quadbright,27.0,20,1,602.5099754333496,602.5049686431885,1038,1
52,quadbright,28.0,20,1,594.1200256347656,594.1112041473389,867,1
53,quadbright,29.0,20,1,594.6040153503418,594.5971012115479,1028,1
54,quadbright,30.0,20,0,2080.0869464874268,2080.0821781158447,960,1
55,quadbright,5.0,17,1,101.41301155090332,404.15096282958984,1228,1
56,quadbright,6.0,17,1,494.16089057922363,494.1561222076416,1500,1
57,quadbright,7.0,17,1,98.95706176757812,395.7030773162842,1261,1
58,quadbright,8.0,17,1,427.4256229400635,427.42395401000977,827,1
59,quadbright,9.0,17,1,596.2891578674316,596.2839126586914,1019,1
60,quadbright,10.0,17,1,494.6150779724121,494.6141242980957,870,1
61,quadbright,11.0,17,1,493.97826194763184,493.9730167388916,1320,1
62,quadbright,12.0,17,1,497.33567237854004,497.3268508911133,890,1
63,quadbright,13.0,17,1,495.7451820373535,495.7411289215088,1439,1
64,quadbright,14.0,17,1,594.7170257568359,594.7079658508301,1084,1
65,quadbright,15.0,17,1,495.434045791626,495.42808532714844,1075,1
66,quadbright,16.0,23,1,493.9091205596924,493.90220642089844,1470,1
67,quadbright,17.0,17,1,386.5799903869629,386.5787982940674,1004,1
68,quadbright,18.0,17,1,484.8508834838867,484.8489761352539,1306,1
69,quadbright,19.0,17,0,1802.8268814086914,1802.825927734375,813,1
70,quadbright,20.0,23,1,493.7479496002197,493.73483657836914,949,1
71,quadbright,21.0,17,1,599.0841388702393,599.0793704986572,1178,1
72,quadbright,22.0,17,1,889.9216651916504,889.9168968200684,1286,1
73,quadbright,23.0,17,1,526.2579917907715,526.256799697876,993,1
74,quadbright,24.0,17,1,525.1009464263916,525.0978469848633,1259,1
75,quadbright,25.0,17,1,525.0871181488037,525.0840187072754,1364,1
76,quadbright,26.0,17,1,498.12817573547363,498.1260299682617,1393,1
77,quadbright,27.0,17,1,493.7126636505127,493.70479583740234,833,1
78,quadbright,28.0,17,1,592.4291610717773,592.4279689788818,1397,1
79,quadbright,29.0,17,1,1982.7001094818115,1982.6931953430176,1048,1
80,quadbright,30.0,23,1,394.6990966796875,394.6959972381592,1108,1
81,quadbright,5.0,17,1,393.51701736450195,393.5117721557617,983,1
82,quadbright,6.0,17,1,98.95992279052734,391.7520046234131,1249,1
83,quadbright,7.0,17,1,99.2128849029541,497.4699020385742,1066,1
84,quadbright,8.0,17,1,394.78516578674316,394.78087425231934,975,1
85,quadbright,9.0,17,1,397.6588249206543,397.6550102233887,1462,1
86,quadbright,10.0,17,1,493.9861297607422,493.98207664489746,1019,1
87,quadbright,11.0,17,1,494.8151111602783,494.8112964630127,1302,1
88,quadbright,12.0,17,1,394.1779136657715,394.17505264282227,1467,1
89,quadbright,13.0,17,1,493.6220645904541,493.6189651489258,841,1
90,quadbright,14.0,17,1,492.6490783691406,492.6469326019287,1146,1
91,quadbright,15.0,17,1,1417.3228740692139,1417.3130989074707,1016,1
92,quadbright,16.0,23,1,428.7559986114502,428.7540912628174,1239,1
93,quadbright,17.0,17,1,524.3988037109375,524.3937969207764,1157,1
94,quadbright,18.0,17,1,526.4508724212646,526.4499187469482,904,1
95,quadbright,19.0,20,1,493.8948154449463,493.88980865478516,1135,1
96,quadbright,20.0,23,1,492.6903247833252,492.68198013305664,814,1
97,quadbright,21.0,17,1,394.942045211792,394.9389457702637,1354,1
98,quadbright,22.0,17,1,524.7299671173096,524.7280597686768,1498,1
99,quadbright,23.0,17,1,495.73588371276855,495.73493003845215,1067,1
100,quadbright,24.0,17,1,495.62692642211914,495.6221580505371,844,1
101,quadbright,25.0,17,1,495.73779106140137,495.73707580566406,1399,1
102,quadbright,26.0,17,1,583.9581489562988,583.9581489562988,1204,1
103,quadbright,27.0,17,1,503.450870513916,503.4465789794922,990,1
104,quadbright,28.0,17,1,494.67968940734863,494.6787357330322,1247,1
105,quadbright,29.0,17,1,495.8338737487793,495.819091796875,1444,1
106,quadbright,30.0,23,1,494.7938919067383,494.7929382324219,1238,1
107,quadbright,5.0,14,1,133.03518295288086,429.2750358581543,1426,1
108,quadbright,6.0,14,1,98.6788272857666,425.0147342681885,861,1
109,quadbright,7.0,14,1,99.00617599487305,396.79622650146484,909,1
110,quadbright,8.0,14,0,425.08697509765625,425.0810146331787,1280,1
111,quadbright,9.0,14,1,99.16925430297852,526.5121459960938,878,1
112,quadbright,10.0,14,1,525.1829624176025,525.1798629760742,845,1
113,quadbright,11.0,14,1,395.021915435791,395.01404762268066,1181,1
114,quadbright,12.0,14,0,1813.3409023284912,1813.3399486541748,1351,1
115,quadbright,13.0,14,1,494.0619468688965,494.05694007873535,1365,1
116,quadbright,14.0,14,1,403.00989151000977,403.00679206848145,1410,1
117,quadbright,15.0,14,1,494.66395378112793,494.6582317352295,934,1
118,quadbright,16.0,21,1,394.655704498291,394.6549892425537,1458,1
119,quadbright,17.0,14,1,386.05403900146484,386.05284690856934,1354,1
120,quadbright,18.0,14,1,495.3420162200928,495.3341484069824,864,1
121,quadbright,19.0,20,1,494.8620796203613,494.858980178833,1393,1
122,quadbright,20.0,21,1,494.9150085449219,494.91405487060547,878,1
123,quadbright,21.0,14,1,492.97213554382324,492.9690361022949,1087,1
124,quadbright,22.0,14,1,485.2011203765869,485.198974609375,1122,1
125,quadbright,23.0,14,1,503.277063369751,503.27420234680176,1125,1
126,quadbright,24.0,14,1,494.77195739746094,494.77100372314453,1409,1
127,quadbright,25.0,14,1,493.8080310821533,493.79706382751465,1294,1
128,quadbright,26.0,14,1,602.294921875,602.2918224334717,1428,1
129,quadbright,27.0,14,1,592.2837257385254,592.2749042510986,873,1
130,quadbright,28.0,14,1,593.7881469726562,593.7869548797607,1388,1
131,quadbright,29.0,14,0,1486.2380027770996,1486.234188079834,1423,1
132,quadbright,30.0,21,1,504.0712356567383,504.06718254089355,1165,1
133,quadbright,5.0,14,1,97.46313095092773,392.8370475769043,1397,1
134,quadbright,6.0,14,1,424.7610569000244,424.7548580169678,804,1
135,quadbright,7.0,14,1,98.79112243652344,1020.8182334899902,822,1
136,quadbright,8.0,17,1,395.550012588501,395.5421447753906,986,0
137,quadbright,8.0,17,1,395.0059413909912,395.0011730194092,1228,1
138,quadbright,9.0,14,1,98.79684448242188,494.48680877685547,1433,1
139,quadbright,10.0,14,1,99.84278678894043,494.3270683288574,1040,1
140,quadbright,11.0,14,1,385.2698802947998,385.267972946167,921,1
141,quadbright,12.0,17,1,397.7160453796387,397.71294593811035,1057,1
142,quadbright,13.0,14,1,517.5011157989502,517.5001621246338,893,1
143,quadbright,14.0,14,1,495.1140880584717,495.1128959655762,1289,1
144,quadbright,15.0,14,1,424.1800308227539,424.1769313812256,824,1
145,quadbright,16.0,21,1,722.1229076385498,722.114086151123,1306,1
146,quadbright,17.0,14,1,493.5932159423828,493.588924407959,1443,1
147,quadbright,18.0,14,1,523.7150192260742,523.7112045288086,995,1
148,quadbright,19.0,18,1,430.131196975708,430.1292896270752,1226,1
149,quadbright,20.0,21,1,425.7059097290039,425.7011413574219,1107,1
150,quadbright,21.0,14,1,425.19283294677734,425.19092559814453,1148,1
151,quadbright,22.0,14,1,395.53284645080566,395.53189277648926,1493,1
152,quadbright,23.0,14,1,525.2940654754639,525.2890586853027,854,1
153,quadbright,24.0,14,1,428.3311367034912,428.3292293548584,1197,1
154,quadbright,25.0,14,1,527.9808044433594,527.9781818389893,1361,1
155,quadbright,26.0,14,1,502.4566650390625,502.4540424346924,1224,1
156,quadbright,27.0,14,1,524.6481895446777,524.644136428833,907,1
157,quadbright,28.0,14,1,485.5690002441406,485.5678081512451,878,1
158,quadbright,29.0,17,1,516.9241428375244,516.923189163208,1333,1
159,quadbright,30.0,21,0,1178.990125656128,1178.987979888916,807,1
160,quadbright,5.0,11,1,197.7231502532959,496.30212783813477,1423,1
161,quadbright,6.0,11,1,99.07674789428711,402.3568630218506,920,1
162,quadbright,7.0,11,1,924.2410659790039,924.2370128631592,927,1
163,quadbright,8.0,17,1,395.8139419555664,395.81298828125,865,1
164,quadbright,9.0,11,1,396.359920501709,396.35515213012695,1069,1
165,quadbright,10.0,11,1,99.15685653686523,396.5299129486084,1252,1
166,quadbright,11.0,11,1,99.05099868774414,493.9877986907959,1141,1
167,quadbright,12.0,17,1,395.7798480987549,395.77293395996094,1335,1
168,quadbright,13.0,11,1,395.6630229949951,395.6620693206787,1152,1
169,quadbright,14.0,11,0,1217.6191806793213,1217.616081237793,896,1
170,quadbright,15.0,11,1,485.0049018859863,485.0039482116699,1403,1
171,quadbright,16.0,20,1,524.5699882507324,524.5630741119385,968,1
172,quadbright,17.0,11,1,493.8380718231201,493.82710456848145,932,1
173,quadbright,18.0,11,0,1306.3790798187256,1306.3781261444092,1402,1
174,quadbright,19.0,18,1,494.01283264160156,494.006872177124,1338,1
175,quadbright,20.0,20,1,592.022180557251,592.0069217681885,1298,1
176,quadbright,21.0,11,1,1088.2840156555176,1088.2768630981445,895,1
177,quadbright,22.0,11,1,594.2940711975098,594.2919254302979,1293,1
178,quadbright,23.0,11,0,1119.5220947265625,1119.5170879364014,1213,1
179,quadbright,24.0,11,1,495.73493003845215,495.7318305969238,903,1
180,quadbright,25.0,11,0,1219.4092273712158,1219.4092273712158,1459,1
181,quadbright,26.0,11,1,682.7900409698486,682.7888488769531,1448,1
182,quadbright,27.0,11,1,692.8310394287109,692.8231716156006,857,1
183,quadbright,28.0,11,0,891.7808532714844,891.779899597168,1450,1
184,quadbright,29.0,17,1,682.2471618652344,682.246208190918,1300,1
185,quadbright,30.0,23,0,790.3389930725098,790.334939956665,1314,1
186,quadbright,5.0,11,1,99.48992729187012,395.24006843566895,863,1
187,quadbright,6.0,11,1,198.65703582763672,494.63915824890137,1018,1
188,quadbright,7.0,11,1,99.03693199157715,396.298885345459,911,1
189,quadbright,8.0,15,1,493.0598735809326,493.0579662322998,985,1
190,quadbright,9.0,11,1,98.98900985717773,692.324161529541,1410,1
191,quadbright,10.0,11,1,493.8349723815918,493.8311576843262,1184,1
192,quadbright,11.0,11,1,97.88203239440918,393.3758735656738,1303,1
193,quadbright,12.0,15,0,1276.6149044036865,1276.6139507293701,851,1
194,quadbright,13.0,11,1,493.9420223236084,493.93391609191895,1405,1
195,quadbright,14.0,14,1,394.96684074401855,394.9611186981201,1290,1
196,quadbright,15.0,11,1,394.7629928588867,394.75488662719727,894,1
197,quadbright,16.0,20,1,515.5141353607178,515.5131816864014,943,1
198,quadbright,17.0,11,1,529.0079116821289,529.0060043334961,910,1
199,quadbright,18.0,14,1,524.0633487701416,524.0561962127686,1490,1
200,quadbright,19.0,17,1,527.4980068206787,527.4968147277832,1001,1
201,quadbright,20.0,20,1,396.9569206237793,396.9552516937256,946,1
202,quadbright,21.0,11,1,495.47791481018066,495.47696113586426,1134,1
203,quadbright,22.0,11,1,396.8338966369629,396.83079719543457,1262,1
204,quadbright,23.0,14,0,1285.210132598877,1285.2060794830322,944,1
205,quadbright,24.0,11,1,899.4519710540771,899.446964263916,1266,1
206,quadbright,25.0,14,1,595.0908660888672,595.0899124145508,1166,1
207,quadbright,26.0,11,1,1122.0240592956543,1122.023105621338,1028,1
208,quadbright,27.0,11,0,892.3029899597168,892.3020362854004,1420,1
209,quadbright,28.0,14,0,890.8870220184326,890.8860683441162,1479,1
210,quadbright,29.0,15,1,791.4218902587891,791.4168834686279,1381,1
211,quadbright,30.0,24,1,602.567195892334,602.5652885437012,976,1
212,quadbright,5.0,8,1,99.02405738830566,395.8740234375,1480,1
213,quadbright,6.0,8,1,386.71207427978516,386.71112060546875,1014,1
214,quadbright,7.0,8,0,98.17194938659668,1078.2079696655273,1449,1
215,quadbright,8.0,15,1,98.40226173400879,394.2279815673828,834,1
216,quadbright,9.0,8,1,99.07007217407227,525.7110595703125,1297,1
217,quadbright,10.0,8,1,525.6979465484619,525.691032409668,1198,1
218,quadbright,11.0,8,1,196.97308540344238,523.5168933868408,845,1
219,quadbright,12.0,17,1,198.4550952911377,394.76728439331055,1234,1
220,quadbright,13.0,8,1,1802.1953105926514,1802.194356918335,1384,1
221,quadbright,14.0,14,1,493.7431812286377,493.7400817871094,1086,1
222,quadbright,15.0,8,1,426.62811279296875,426.62692070007324,954,1
223,quadbright,16.0,18,0,913.0740165710449,913.0730628967285,1449,1
224,quadbright,17.0,8,1,691.1900043487549,691.185712814331,906,1
225,quadbright,18.0,14,1,494.11892890930176,494.11582946777344,913,1
226,quadbright,19.0,17,1,394.74987983703613,394.7410583496094,856,1
227,quadbright,20.0,18,1,393.9321041107178,393.9251899719238,998,1
228,quadbright,21.0,8,1,497.1458911895752,497.1437454223633,1392,1
229,quadbright,22.0,8,1,496.69623374938965,496.6912269592285,1202,1
230,quadbright,23.0,17,1,395.0321674346924,395.02406120300293,849,1
231,quadbright,24.0,8,1,689.5890235900879,689.5861625671387,1035,1
232,quadbright,25.0,14,1,692.9290294647217,692.9280757904053,966,1
233,quadbright,26.0,8,1,1198.112964630127,1198.1089115142822,912,1
234,quadbright,27.0,14,1,494.5700168609619,494.5700168609619,1203,1
235,quadbright,28.0,17,1,1288.1050109863281,1288.0959510803223,964,1
236,quadbright,29.0,15,1,493.9298629760742,493.9248561859131,1244,1
237,quadbright,30.0,24,1,989.6979331970215,989.6929264068604,890,1
238,quadbright,5.0,8,1,99.23672676086426,494.40979957580566,1205,1
239,quadbright,6.0,8,1,98.86789321899414,398.1950283050537,958,1
240,quadbright,7.0,11,1,100.86917877197266,496.38819694519043,1068,1
241,quadbright,8.0,14,1,98.67715835571289,395.535945892334,1224,1
242,quadbright,9.0,8,1,98.89411926269531,990.1330471038818,1004,1
243,quadbright,10.0,8,1,100.99911689758301,396.29197120666504,1294,1
244,quadbright,11.0,8,1,493.602991104126,493.59893798828125,910,1
245,quadbright,12.0,17,1,496.80590629577637,496.80018424987793,1289,1
246,quadbright,13.0,8,1,591.9098854064941,591.9029712677002,1430,1
247,quadbright,14.0,12,1,524.8620510101318,524.8589515686035,989,1
248,quadbright,15.0,8,1,525.4688262939453,525.4638195037842,1329,1
249,quadbright,16.0,20,1,496.8709945678711,496.8688488006592,954,1
250,quadbright,17.0,8,0,1111.8228435516357,1111.8218898773193,1216,1
251,quadbright,18.0,12,0,922.170877456665,922.1687316894531,1304,1
252,quadbright,19.0,15,1,525.4402160644531,525.4359245300293,1460,1
253,quadbright,20.0,18,1,394.30689811706543,394.3009376525879,1478,1
254,quadbright,21.0,8,1,1087.8231525421143,1087.817907333374,1074,1
255,quadbright,22.0,8,1,691.50710105896,691.4989948272705,1070,1
256,quadbright,23.0,17,1,503.7226676940918,503.7188529968262,976,1
257,quadbright,24.0,8,0,1178.0459880828857,1178.0459880828857,1239,1
258,quadbright,25.0,12,0,592.8709506988525,592.8659439086914,1085,1
259,quadbright,26.0,8,1,881.3681602478027,881.3672065734863,1022,1
260,quadbright,27.0,14,0,890.3090953826904,890.300989151001,1184,1
261,quadbright,28.0,17,1,494.40979957580566,494.40884590148926,1286,1
262,quadbright,29.0,14,1,693.0670738220215,693.0620670318604,942,1
263,quadbright,30.0,23,1,493.6177730560303,493.6099052429199,1040,1
264,quadbright,5.0,5,1,100.72708129882812,395.50209045410156,961,1
265,quadbright,6.0,5,1,98.56891632080078,782.1099758148193,1278,1
266,quadbright,7.0,11,1,592.6229953765869,592.620849609375,991,1
267,quadbright,8.0,14,1,100.03399848937988,395.78700065612793,1120,1
268,quadbright,9.0,5,1,97.63693809509277,1689.9588108062744,1086,1
269,quadbright,10.0,5,1,493.38579177856445,493.3779239654541,868,1
270,quadbright,11.0,5,1,1186.8531703948975,1186.8500709533691,1158,1
271,quadbright,12.0,16,1,394.81091499328613,394.8080539703369,997,1
272,quadbright,13.0,5,1,889.6758556365967,889.671802520752,1269,1
273,quadbright,14.0,12,1,393.146276473999,393.1441307067871,920,1
274,quadbright,15.0,5,1,782.1948528289795,782.1938991546631,860,1
275,quadbright,16.0,20,1,592.6659107208252,592.6611423492432,888,1
276,quadbright,17.0,11,1,494.736909866333,494.7347640991211,894,1
277,quadbright,18.0,14,1,395.51711082458496,395.51615715026855,1335,1
278,quadbright,19.0,15,1,516.2661075592041,516.2653923034668,811,1
279,quadbright,20.0,17,1,1111.6762161254883,1111.6752624511719,1055,1
280,quadbright,21.0,5,1,723.006010055542,723.0029106140137,1463,1
281,quadbright,22.0,5,0,1030.0030708312988,1029.9999713897705,1077,1
282,quadbright,23.0,15,0,600.898265838623,600.8951663970947,1465,1
283,quadbright,24.0,11,1,493.8549995422363,493.8511848449707,1492,1
284,quadbright,25.0,14,1,494.93408203125,494.9331283569336,968,1
285,quadbright,26.0,5,1,1178.5321235656738,1178.5311698913574,1474,1
286,quadbright,27.0,15,1,593.170166015625,593.1680202484131,1335,1
287,quadbright,28.0,15,1,792.3009395599365,792.2959327697754,1191,1
288,quadbright,29.0,14,0,1079.4649124145508,1079.4639587402344,1433,1
289,quadbright,30.0,23,1,493.15500259399414,493.149995803833,910,1
290,quadbright,5.0,5,1,97.15008735656738,492.002010345459,999,1
291,quadbright,6.0,5,1,494.61889266967773,494.6177005767822,1153,1
292,quadbright,7.0,9,1,198.25005531311035,501.021146774292,844,1
293,quadbright,8.0,12,0,98.81901741027832,495.1910972595215,982,1
294,quadbright,9.0,5,1,98.91605377197266,395.69711685180664,979,1
295,quadbright,10.0,5,1,394.69099044799805,394.6881294250488,1322,1
296,quadbright,11.0,5,1,682.5659275054932,682.5649738311768,1369,1
297,quadbright,12.0,16,1,100.4018783569336,394.30689811706543,1223,1
298,quadbright,13.0,5,1,996.48118019104,996.4771270751953,922,1
299,quadbright,14.0,11,1,592.620849609375,592.6127433776855,1344,1
300,quadbright,15.0,5,0,889.2149925231934,889.2128467559814,1148,1
301,quadbright,16.0,19,1,493.6959743499756,493.69287490844727,892,1
302,quadbright,17.0,11,1,426.159143447876,426.15389823913574,1179,1
303,quadbright,18.0,14,1,524.9080657958984,524.9059200286865,1387,1
304,quadbright,19.0,14,1,495.30601501464844,495.2981472015381,1082,1
305,quadbright,20.0,17,1,526.7391204833984,526.738166809082,1380,1
306,quadbright,21.0,5,0,782.5579643249512,782.5570106506348,861,1
307,quadbright,22.0,8,1,491.87207221984863,491.8680191040039,1325,1
308,quadbright,23.0,17,1,493.93510818481445,493.9310550689697,1422,1
309,quadbright,24.0,11,1,495.2850341796875,495.2850341796875,1463,1
310,quadbright,25.0,14,1,493.5450553894043,493.5421943664551,1101,1
311,quadbright,26.0,5,0,793.442964553833,793.4401035308838,1427,1
312,quadbright,27.0,15,1,494.8747158050537,494.8737621307373,871,1
313,quadbright,28.0,15,1,495.05615234375,495.05615234375,1456,1
314,quadbright,29.0,15,1,495.36609649658203,495.3620433807373,925,1
315,quadbright,30.0,22,1,494.2328929901123,494.2319393157959,1348,1
316,quadbright,5.0,2,1,99.18999671936035,2319.7240829467773,810,1
317,quadbright,6.0,2,1,99.10178184509277,3701.0629177093506,1223,1
318,quadbright,7.0,9,1,98.6490249633789,493.79897117614746,1461,1
319,quadbright,8.0,14,1,524.0631103515625,524.0588188171387,815,1
320,quadbright,9.0,2,1,1020.8280086517334,1020.8272933959961,874,1
321,quadbright,10.0,2,1,96.41408920288086,1411.855936050415,851,1
322,quadbright,11.0,2,1,1088.6008739471436,1088.597059249878,1399,1
323,quadbright,12.0,15,1,428.6360740661621,428.631067276001,1257,1
324,quadbright,13.0,2,1,881.6738128662109,881.6738128662109,978,1
325,quadbright,14.0,11,1,394.31214332580566,394.30713653564453,897,1
326,quadbright,15.0,8,0,1181.3488006591797,1181.3478469848633,1219,1
327,quadbright,16.0,19,1,435.657262802124,435.6541633605957,816,1
328,quadbright,17.0,9,1,724.0970134735107,724.0941524505615,1448,1
329,quadbright,18.0,13,0,537.6729965209961,537.6648902893066,1348,1
330,quadbright,19.0,14,1,526.716947555542,526.7138481140137,968,1
331,quadbright,20.0,15,1,487.9310131072998,487.9288673400879,952,1
332,quadbright,21.0,8,0,891.2289142608643,891.2248611450195,1048,1
333,quadbright,22.0,8,0,791.593074798584,791.5849685668945,1095,1
334,quadbright,23.0,17,1,491.8398857116699,491.8358325958252,1274,1
335,quadbright,24.0,9,0,801.6071319580078,801.6030788421631,801,1
336,quadbright,25.0,13,1,496.36197090148926,496.35982513427734,1294,1
337,quadbright,26.0,8,0,792.2370433807373,792.2329902648926,1391,1
338,quadbright,27.0,14,0,791.3651466369629,791.3599014282227,1124,1
339,quadbright,28.0,14,0,890.5010223388672,890.4972076416016,1060,1
340,quadbright,29.0,15,0,691.7397975921631,691.7288303375244,990,1
341,quadbright,30.0,22,1,726.5710830688477,726.5620231628418,1099,1
342,quadbright,5.0,2,1,100.67605972290039,1409.9738597869873,1071,1
343,quadbright,6.0,2,1,891.6957378387451,891.6947841644287,1418,0
344,quadbright,6.0,2,0,4624.283313751221,4624.280214309692,964,1
345,quadbright,7.0,8,1,99.34377670288086,406.13389015197754,803,0
346,quadbright,7.0,8,1,131.40010833740234,426.1300563812256,1154,1
347,quadbright,8.0,14,1,98.65617752075195,690.0968551635742,1318,1
348,quadbright,9.0,2,0,1180.9818744659424,1180.980920791626,1089,1
349,quadbright,10.0,2,1,1089.021921157837,1089.020013809204,1051,1
350,quadbright,11.0,2,1,98.97494316101074,583.611011505127,904,1
351,quadbright,12.0,15,1,394.7896957397461,394.7865962982178,1329,1
352,quadbright,13.0,2,1,1130.223035812378,1130.2211284637451,1343,1
353,quadbright,14.0,9,1,98.82283210754395,591.9349193572998,1315,0
354,quadbright,14.0,9,1,394.9248790740967,394.92225646972656,962,1
355,quadbright,15.0,11,1,495.20182609558105,495.20087242126465,881,1
356,quadbright,16.0,18,1,427.7641773223877,427.75797843933105,1240,1
357,quadbright,17.0,9,1,494.7361946105957,494.7342872619629,1054,1
358,quadbright,18.0,14,1,392.6198482513428,392.61507987976074,1423,1
359,quadbright,19.0,12,1,494.44007873535156,494.43721771240234,1070,1
360,quadbright,20.0,15,1,497.21407890319824,497.21217155456543,831,1
361,quadbright,21.0,11,1,493.82615089416504,493.821382522583,1074,1
362,quadbright,22.0,9,1,493.3030605316162,493.2999610900879,1200,1
363,quadbright,23.0,16,1,493.1051731109619,493.1011199951172,806,1
364,quadbright,24.0,11,1,529.7391414642334,529.7341346740723,823,1
365,quadbright,25.0,13,1,493.4988021850586,493.49403381347656,900,1
366,quadbright,26.0,11,1,820.6961154937744,820.6961154937744,1193,1
367,quadbright,27.0,15,1,504.7900676727295,504.7872066497803,1141,1
368,quadbright,28.0,15,1,582.3681354522705,582.3681354522705,1357,1
369,quadbright,29.0,16,1,682.02805519104,682.0271015167236,809,1
370,quadbright,30.0,21,1,485.11385917663574,485.11266708374023,946,1
371,quadbright,5.0,1,1,99.99203681945801,893.8090801239014,1052,1
372,quadbright,6.0,5,1,99.00999069213867,394.1349983215332,1055,1
373,quadbright,7.0,8,1,99.63274002075195,395.8110809326172,869,1
374,quadbright,8.0,13,1,99.20287132263184,495.3160285949707,1219,1
375,quadbright,9.0,5,1,98.22535514831543,493.00217628479004,1317,1
376,quadbright,10.0,1,0,725.0642776489258,725.0621318817139,1288,1
377,quadbright,11.0,1,0,636.6479396820068,636.6450786590576,1238,1
378,quadbright,12.0,14,1,526.8990993499756,526.8838405609131,951,1
379,quadbright,13.0,1,0,724.9758243560791,724.9736785888672,1199,1
380,quadbright,14.0,9,0,691.6139125823975,691.6117668151855,892,1
381,quadbright,15.0,11,1,902.1821022033691,902.177095413208,926,1
382,quadbright,16.0,18,1,393.0208683013916,393.0189609527588,1243,1
383,quadbright,17.0,8,1,681.9190979003906,681.9181442260742,1356,1
384,quadbright,18.0,14,1,495.21780014038086,495.21780014038086,931,1
385,quadbright,19.0,12,1,592.6618576049805,592.6599502563477,1185,1
386,quadbright,20.0,14,1,483.720064163208,483.7191104888916,1279,1
387,quadbright,21.0,11,1,394.2289352416992,394.2217826843262,944,1
388,quadbright,22.0,9,1,593.1057929992676,593.0979251861572,1246,1
389,quadbright,23.0,16,1,494.8301315307617,494.8291778564453,874,1
390,quadbright,24.0,11,0,604.2320728302002,604.22682762146,1104,1
391,quadbright,25.0,12,1,592.789888381958,592.7796363830566,1465,1
392,quadbright,26.0,11,0,591.7799472808838,591.7770862579346,1317,1
393,quadbright,27.0,15,1,395.83897590637207,395.83802223205566,1384,1
394,quadbright,28.0,15,1,627.007007598877,627.0058155059814,984,1
395,quadbright,29.0,16,1,527.6279449462891,527.6238918304443,915,1
396,quadbright,30.0,21,1,518.0008411407471,517.9989337921143,1265,1
