trial,condition,eccentricity,magnitude,correct,srt_ms,keyboard_rt_ms,pre_change_ms,valid
1,control,5.0,20,1,492.7029609680176,492.70081520080566,1385,1
2,control,6.0,20,1,394.10400390625,394.09589767456055,1381,1
3,control,7.0,20,1,593.2121276855469,593.209981918335,1122,1
4,control,8.0,20,1,99.06196594238281,988.1389141082764,1476,1
5,control,9.0,20,1,98.42896461486816,427.6008605957031,884,1
6,control,10.0,20,1,98.09994697570801,892.6599025726318,883,1
7,control,11.0,20,1,98.98710250854492,393.6190605163574,1281,1
8,control,12.0,20,1,98.42300415039062,492.1119213104248,1490,1
9,control,13.0,20,1,97.63097763061523,1087.1391296386719,989,1
10,control,14.0,20,1,593.8658714294434,593.8596725463867,1156,1
11,control,15.0,20,1,525.7022380828857,525.6960391998291,1193,1
12,control,16.0,20,1,626.7650127410889,626.7597675323486,1338,1
13,control,17.0,20,1,527.3821353912354,527.3761749267578,966,1
14,control,18.0,20,1,394.5012092590332,394.4971561431885,1344,1
15,control,19.0,20,1,492.7248954772949,492.71607398986816,1437,1
16,control,20.0,20,1,99.32684898376465,394.55580711364746,1183,1
17,control,21.0,20,0,395.83492279052734,395.8299160003662,1427,1
18,control,22.0,20,1,625.939130783081,625.9360313415527,1363,1
19,control,23.0,20,1,527.2071361541748,527.2040367126465,1197,1
20,control,24.0,20,1,527.191162109375,527.1880626678467,1401,1
21,control,25.0,20,1,492.69604682922363,492.6939010620117,849,1
22,control,26.0,20,1,493.64280700683594,493.6349391937256,1151,1
23,control,27.0,20,0,495.5930709838867,495.5861568450928,1054,1
24,control,28.0,20,1,594.7141647338867,594.7048664093018,1226,1
25,control,29.0,20,1,989.9570941925049,989.9539947509766,1160,1
26,control,30.0,20,1,493.82805824279785,493.8182830810547,1307,1
27,control,5.0,20,1,98.90508651733398,295.3000068664551,814,1
28,control,6.0,20,1,493.10827255249023,493.1070804595947,1430,1
29,control,7.0,20,1,98.68693351745605,431.37598037719727,1302,1
30,control,8.0,20,0,198.68993759155273,394.4699764251709,878,1
31,control,9.0,20,1,493.73793601989746,493.73483657836914,1012,1
32,control,10.0,20,1,1188.6320114135742,1188.6301040649414,1186,1
33,control,11.0,20,1,592.4680233001709,592.4630165100098,941,1
34,control,12.0,20,1,526.2680053710938,526.2589454650879,1474,1
35,control,13.0,20,1,427.22511291503906,427.22296714782715,1131,1
36,control,14.0,20,1,395.45583724975586,395.45392990112305,1340,1
37,control,15.0,20,1,426.7308712005615,426.7230033874512,925,1
38,control,16.0,20,1,1021.899938583374,1021.8968391418457,1464,1
39,control,17.0,20,1,394.0448760986328,394.0420150756836,1295,1
40,control,18.0,20,1,724.0171432495117,724.013090133667,913,1
41,control,19.0,20,0,428.2188415527344,428.21407318115234,1429,1
42,control,20.0,20,1,525.2728462219238,525.2690315246582,997,1
43,control,21.0,23,1,1022.0551490783691,1022.0499038696289,1415,1
44,control,22.0,20,1,430.63902854919434,430.635929107666,941,1
45,control,23.0,20,1,494.2030906677246,494.1990375518799,1271,1
46,control,24.0,20,1,1186.7039203643799,1186.702013015747,817,1
47,control,25.0,20,1,595.4251289367676,595.4229831695557,854,1
48,control,26.0,20,1,495.0089454650879,495.00274658203125,1312,1
49,control,27.0,23,1,494.8091506958008,494.80605125427246,1011,1
50,control,28.0,20,1,493.4980869293213,493.49403381347656,1247,1
51,control,29.0,20,1,592.8068161010742,592.7999019622803,1391,1
52,control,30.0,20,1,494.6460723876953,494.6439266204834,1006,1
53,control,5.0,17,0,100.92020034790039,593.2550430297852,1204,1
54,control,6.0,17,1,497.38597869873047,497.38526344299316,1328,1
55,control,7.0,17,1,198.59004020690918,593.9068794250488,1376,1
56,control,8.0,23,1,494.981050491333,494.9779510498047,1481,1
57,control,9.0,17,1,495.32437324523926,495.32127380371094,1069,1
58,control,10.0,17,1,494.37904357910156,494.37785148620605,1179,1
59,control,11.0,17,1,98.58369827270508,395.47276496887207,1463,1
60,control,12.0,17,1,400.07686614990234,892.3318386077881,1355,1
61,control,13.0,17,1,394.7157859802246,394.7138786315918,1477,1
62,control,14.0,17,1,524.9006748199463,524.8987674713135,1113,1
63,control,15.0,17,0,297.5790500640869,626.0411739349365,1480,1
64,control,16.0,17,0,496.11806869506836,496.11592292785645,970,1
65,control,17.0,17,1,399.3687629699707,399.3678092956543,1433,1
66,control,18.0,17,1,894.4368362426758,894.4339752197266,1330,1
67,control,19.0,23,1,891.0348415374756,891.0329341888428,1082,1
68,control,20.0,17,1,593.2388305664062,593.2378768920898,1140,1
69,control,21.0,23,1,493.455171585083,493.4430122375488,1065,1
70,control,22.0,17,1,493.24679374694824,493.24584007263184,1374,1
71,control,23.0,17,1,503.91292572021484,503.9098262786865,1411,1
72,control,24.0,17,1,988.5709285736084,988.5649681091309,1360,1
73,control,25.0,17,1,495.0411319732666,495.03636360168457,1112,1
74,control,26.0,17,1,393.8460350036621,393.83888244628906,1376,1
75,control,27.0,23,1,993.1001663208008,993.0970668792725,1352,1
76,control,28.0,17,1,493.15595626831055,493.1478500366211,831,1
77,control,29.0,17,1,495.2130317687988,495.2099323272705,878,1
78,control,30.0,17,1,592.7977561950684,592.796802520752,806,1
79,control,5.0,20,0,327.56996154785156,327.56710052490234,1292,1
80,control,6.0,17,1,98.84214401245117,494.0478801727295,957,1
81,control,7.0,17,1,200.18601417541504,595.7491397857666,1139,1
82,control,8.0,23,1,98.73032569885254,889.1801834106445,1064,1
83,control,9.0,17,1,98.7539291381836,494.3380355834961,1213,1
84,control,10.0,17,1,198.0149745941162,624.6519088745117,1462,1
85,control,11.0,17,1,1021.2898254394531,1021.2857723236084,1374,1
86,control,12.0,17,1,99.51615333557129,593.0070877075195,1430,1
87,control,13.0,17,1,394.6969509124756,394.69218254089355,1323,1
88,control,14.0,17,1,491.6672706604004,491.6660785675049,995,1
89,control,15.0,20,1,1024.5001316070557,1024.4970321655273,1362,1
90,control,16.0,20,1,594.933032989502,594.9313640594482,1006,1
91,control,17.0,17,1,591.6979312896729,591.6957855224609,1181,1
92,control,18.0,17,1,691.1211013793945,691.1189556121826,1176,1
93,control,19.0,23,1,592.8621292114258,592.858076095581,842,1
94,control,20.0,17,1,492.92898178100586,492.9029941558838,1498,1
95,control,21.0,20,0,594.3408012390137,594.3386554718018,918,1
96,control,22.0,17,1,591.0730361938477,591.0687446594238,1113,1
97,control,23.0,17,1,398.84400367736816,398.84090423583984,1087,1
98,control,24.0,17,1,592.9749011993408,592.9651260375977,1043,1
99,control,25.0,17,1,894.7718143463135,894.7699069976807,938,1
100,control,26.0,17,1,396.104097366333,396.09503746032715,859,1
101,control,27.0,20,1,526.8068313598633,526.7996788024902,810,1
102,control,28.0,17,1,297.31082916259766,494.0600395202637,1019,1
103,control,29.0,17,1,494.36497688293457,494.36283111572266,1061,1
104,control,30.0,17,1,592.993974685669,592.9908752441406,1104,1
105,control,5.0,23,1,2901.4739990234375,2901.465892791748,1188,1
106,control,6.0,14,1,391.6490077972412,391.6449546813965,1108,1
107,control,7.0,14,1,98.46305847167969,394.2878246307373,1259,1
108,control,8.0,21,1,1585.8862400054932,1585.8831405639648,1405,1
109,control,9.0,14,1,592.9453372955322,592.9422378540039,919,1
110,control,10.0,14,1,593.602180480957,593.5971736907959,1419,1
111,control,11.0,14,1,1583.5120677947998,1583.510160446167,853,1
112,control,12.0,14,1,494.66705322265625,494.6620464324951,1340,1
113,control,13.0,14,1,495.0900077819824,495.0869083404541,1243,1
114,control,14.0,14,1,493.4730529785156,493.4678077697754,1341,1
115,control,15.0,20,1,988.7890815734863,988.7850284576416,955,1
116,control,16.0,20,1,96.49491310119629,425.10294914245605,1479,1
117,control,17.0,14,1,626.1820793151855,626.1758804321289,1209,1
118,control,18.0,14,1,495.1779842376709,495.1751232147217,1311,1
119,control,19.0,21,0,1517.3008441925049,1517.298936843872,1214,1
120,control,20.0,14,1,494.9781894683838,494.97413635253906,1196,1
121,control,21.0,23,1,493.45898628234863,493.4511184692383,1173,1
122,control,22.0,14,1,492.57707595825195,492.57540702819824,807,1
123,control,23.0,14,1,492.8629398345947,492.8550720214844,1323,1
124,control,24.0,14,1,893.6572074890137,893.6562538146973,861,1
125,control,25.0,14,1,592.8909778594971,592.8871631622314,854,1
126,control,26.0,14,1,1187.939167022705,1187.9360675811768,1349,1
127,control,27.0,20,1,890.200138092041,890.1948928833008,975,1
128,control,28.0,14,0,1483.7782382965088,1483.7720394134521,824,1
129,control,29.0,14,1,394.47784423828125,394.4687843322754,987,1
130,control,30.0,14,1,493.6938285827637,493.69072914123535,1468,1
131,control,5.0,23,1,99.07293319702148,495.2559471130371,1364,1
132,control,6.0,14,1,100.03924369812012,1089.3361568450928,981,1
133,control,7.0,14,1,399.3065357208252,988.6736869812012,1127,1
134,control,8.0,21,1,98.20699691772461,1087.4748229980469,1154,1
135,control,9.0,14,1,229.51674461364746,526.4887809753418,1164,1
136,control,10.0,14,1,525.6948471069336,525.6907939910889,1431,1
137,control,11.0,14,0,196.8700885772705,1218.5461521148682,869,1
138,control,12.0,14,0,2276.7162322998047,2276.7131328582764,934,1
139,control,13.0,14,1,198.2588768005371,493.1988716125488,1493,1
140,control,14.0,14,1,496.6731071472168,496.6721534729004,1044,1
141,control,15.0,18,1,494.0049648284912,494.0030574798584,1170,1
142,control,16.0,18,0,1088.1078243255615,1088.101863861084,803,0
143,control,16.0,18,1,493.9239025115967,493.92104148864746,1037,1
144,control,17.0,14,1,495.15819549560547,495.15390396118164,1363,1
145,control,18.0,14,1,97.66888618469238,493.8969612121582,1173,1
146,control,19.0,23,1,497.8299140930176,497.82562255859375,1026,1
147,control,20.0,14,1,594.1159725189209,594.1128730773926,1391,1
148,control,21.0,23,1,395.2178955078125,395.2031135559082,1009,1
149,control,22.0,14,1,595.8778858184814,595.8747863769531,1079,1
150,control,23.0,14,1,991.6863441467285,991.6832447052002,1425,1
151,control,24.0,14,1,492.53106117248535,492.52986907958984,1107,1
152,control,25.0,14,0,1486.166000366211,1486.1633777618408,1026,1
153,control,26.0,14,1,496.8419075012207,496.8380928039551,1445,1
154,control,27.0,17,1,795.6826686859131,795.6826686859131,1037,1
155,control,28.0,17,1,494.5096969604492,494.5058822631836,1253,1
156,control,29.0,14,1,596.6529846191406,596.6489315032959,841,1
157,control,30.0,14,1,494.0340518951416,494.0330982208252,1497,1
158,control,5.0,21,1,98.49190711975098,890.1839256286621,1048,1
159,control,6.0,11,1,324.5089054107666,324.5067596435547,1243,1
160,control,7.0,11,1,99.56908226013184,494.426965713501,1063,1
161,control,8.0,20,1,398.58293533325195,495.71990966796875,1115,1
162,control,9.0,11,1,98.07205200195312,497.0400333404541,1373,1
163,control,10.0,11,1,592.980146408081,592.9780006408691,1242,1
164,control,11.0,17,1,98.68502616882324,987.9350662231445,890,1
165,control,12.0,17,0,495.9831237792969,495.98002433776855,1285,1
166,control,13.0,11,1,525.6760120391846,525.6671905517578,1437,1
167,control,14.0,11,1,497.33996391296387,497.33591079711914,884,1
168,control,15.0,18,1,404.559850692749,404.5579433441162,1294,1
169,control,16.0,18,1,496.21105194091797,496.20699882507324,1143,1
170,control,17.0,11,1,493.4530258178711,493.44897270202637,1233,1
171,control,18.0,11,1,395.00904083251953,395.0040340423584,1082,1
172,control,19.0,23,1,526.9949436187744,526.9923210144043,1047,1
173,control,20.0,11,1,426.65600776672363,426.6469478607178,1406,1
174,control,21.0,21,1,396.47507667541504,396.4710235595703,822,1
175,control,22.0,11,1,495.07689476013184,495.0721263885498,1325,1
176,control,23.0,11,0,593.1611061096191,593.156099319458,1332,1
177,control,24.0,11,1,1315.946102142334,1315.9399032592773,1106,1
178,control,25.0,17,1,492.63691902160645,492.63477325439453,1462,1
179,control,26.0,11,1,2507.214069366455,2507.211923599243,1086,1
180,control,27.0,17,1,494.5199489593506,494.51398849487305,1436,1
181,control,28.0,17,1,493.3791160583496,493.36910247802734,996,1
182,control,29.0,11,1,497.3940849304199,497.3912239074707,1458,1
183,control,30.0,11,1,494.3127632141113,494.3110942840576,1297,1
184,control,5.0,21,1,98.74701499938965,593.7631130218506,1026,1
185,control,6.0,11,1,1086.5280628204346,1086.5209102630615,905,1
186,control,7.0,11,1,593.9598083496094,593.9581394195557,1241,1
187,control,8.0,20,1,99.5950698852539,394.5043087005615,1484,1
188,control,9.0,11,1,394.34003829956055,394.33789253234863,1476,1
189,control,10.0,11,1,98.35600852966309,493.90506744384766,1285,1
190,control,11.0,17,1,494.28296089172363,494.2789077758789,1403,1
191,control,12.0,20,1,492.11621284484863,492.110013961792,1424,1
192,control,13.0,11,1,99.3201732635498,1781.2411785125732,1003,1
193,control,14.0,11,1,494.3199157714844,494.31586265563965,978,1
194,control,15.0,17,1,491.9140338897705,491.9118881225586,1266,1
195,control,16.0,17,0,625.5347728729248,625.5300045013428,1140,1
196,control,17.0,11,0,197.76391983032227,597.3410606384277,1372,1
197,control,18.0,11,1,395.3700065612793,494.1258430480957,859,1
198,control,19.0,22,1,493.46113204956055,493.46041679382324,1094,1
199,control,20.0,11,1,494.3349361419678,494.33302879333496,1188,1
200,control,21.0,21,1,592.9989814758301,592.9930210113525,863,1
201,control,22.0,11,1,593.151330947876,593.1451320648193,1013,1
202,control,23.0,14,1,494.2209720611572,494.2169189453125,1046,1
203,control,24.0,11,0,295.9010601043701,295.8979606628418,960,1
204,control,25.0,17,1,529.3209552764893,529.3200016021729,1031,1
205,control,26.0,11,1,494.3230152130127,494.31920051574707,1022,1
206,control,27.0,14,1,493.76797676086426,493.7608242034912,891,1
207,control,28.0,15,1,494.2362308502197,494.232177734375,1337,1
208,control,29.0,11,1,1154.6401977539062,1154.6380519866943,847,0
209,control,29.0,11,1,593.6191082000732,593.6119556427002,1350,1
210,control,30.0,11,1,494.7659969329834,494.75598335266113,1332,1
211,control,5.0,20,1,199.0809440612793,1912.3759269714355,1336,1
212,control,6.0,8,1,198.5180377960205,493.78299713134766,904,1
213,control,7.0,8,1,593.9779281616211,593.9719676971436,1314,1
214,control,8.0,18,1,493.60203742980957,493.59679222106934,1050,1
215,control,9.0,8,1,626.4560222625732,626.4441013336182,1107,1
216,control,10.0,8,1,493.1042194366455,493.1011199951172,982,1
217,control,11.0,15,1,493.4830665588379,493.4802055358887,826,1
218,control,12.0,20,1,394.7157859802246,394.70791816711426,981,1
219,control,13.0,8,1,988.7559413909912,988.7480735778809,807,1
220,control,14.0,8,1,494.59385871887207,494.59195137023926,983,1
221,control,15.0,17,1,691.9031143188477,691.8971538543701,1411,1
222,control,16.0,18,1,394.0238952636719,394.02174949645996,1051,1
223,control,17.0,14,1,397.7987766265869,1814.5477771759033,1282,1
224,control,18.0,8,1,593.1990146636963,593.1961536407471,1415,1
225,control,19.0,22,1,593.5919284820557,593.5816764831543,1207,1
226,control,20.0,8,0,494.5070743560791,494.5049285888672,1200,1
227,control,21.0,20,1,427.1223545074463,427.11806297302246,1127,1
228,control,22.0,8,1,394.9289321899414,394.9239253997803,1482,1
229,control,23.0,14,1,494.0938949584961,494.08888816833496,1055,1
230,control,24.0,14,1,494.4758415222168,494.4729804992676,867,1
231,control,25.0,15,1,494.5697784423828,494.56787109375,916,1
232,control,26.0,8,1,396.69299125671387,396.69108390808105,857,1
233,control,27.0,14,1,592.069149017334,592.0660495758057,1137,1
234,control,28.0,15,1,592.7698612213135,592.7629470825195,874,1
235,control,29.0,8,0,692.1999454498291,692.1987533569336,1045,1
236,control,30.0,8,1,494.9839115142822,494.9779510498047,1477,1
237,control,5.0,20,1,97.47004508972168,393.26000213623047,1498,1
238,control,6.0,8,1,200.3498077392578,593.1997299194336,1473,1
239,control,7.0,8,1,98.93202781677246,390.93708992004395,1126,1
240,control,8.0,18,1,197.10206985473633,2011.1658573150635,1315,1
241,control,9.0,8,1,494.2739009857178,494.27199363708496,1073,1
242,control,10.0,8,1,1516.6409015655518,1516.639232635498,1273,1
243,control,11.0,15,1,393.1729793548584,393.1708335876465,809,1
244,control,12.0,18,1,397.15123176574707,397.14813232421875,1382,1
245,control,13.0,8,1,524.3749618530273,524.371862411499,1156,1
246,control,14.0,8,0,197.28994369506836,626.807689666748,1430,1
247,control,15.0,15,1,495.42927742004395,495.4240322113037,1349,1
248,control,16.0,18,1,494.31586265563965,494.3058490753174,1425,1
249,control,17.0,14,1,594.092845916748,594.0899848937988,962,1
250,control,18.0,8,1,888.6950016021729,888.6871337890625,970,1
251,control,19.0,21,1,890.9478187561035,890.9440040588379,1244,1
252,control,20.0,11,1,493.82710456848145,493.8230514526367,1226,1
253,control,21.0,20,0,493.0262565612793,493.02196502685547,1473,1
254,control,22.0,8,1,690.8507347106934,690.8447742462158,1450,1
255,control,23.0,12,1,921.541690826416,921.5281009674072,1410,1
256,control,24.0,14,1,395.65396308898926,395.65181732177734,1255,1
257,control,25.0,15,1,494.2331314086914,494.22693252563477,1384,1
258,control,26.0,8,1,594.2432880401611,594.2349433898926,1406,1
259,control,27.0,11,1,495.1622486114502,495.1610565185547,962,1
260,control,28.0,14,1,493.8199520111084,493.81399154663086,1096,1
261,control,29.0,11,1,592.5581455230713,592.5543308258057,1154,1
262,control,30.0,8,1,592.3497676849365,592.3449993133545,1306,1
263,control,5.0,18,1,99.4420051574707,394.88697052001953,1463,1
264,control,6.0,5,1,197.14093208312988,295.20583152770996,955,1
265,control,7.0,5,1,98.23799133300781,495.0127601623535,949,1
266,control,8.0,17,1,98.77800941467285,493.8981533050537,1120,1
267,control,9.0,5,0,497.89905548095703,497.8961944580078,1085,1
268,control,10.0,5,1,394.5488929748535,394.5469856262207,1422,1
269,control,11.0,14,1,791.9352054595947,791.9299602508545,1483,1
270,control,12.0,18,1,493.4196472167969,493.41392517089844,1049,0
271,control,12.0,18,1,199.22184944152832,493.182897567749,1158,1
272,control,13.0,5,0,99.20811653137207,525.9029865264893,1468,1
273,control,14.0,11,1,593.5618877410889,593.5587882995605,898,1
274,control,15.0,15,0,395.2021598815918,395.1983451843262,1104,1
275,control,16.0,17,1,493.64709854125977,493.64519119262695,849,1
276,control,17.0,12,1,595.1888561248779,595.1848030090332,819,1
277,control,18.0,5,1,689.7430419921875,689.7389888763428,1325,1
278,control,19.0,21,1,392.1530246734619,392.1489715576172,1251,1
279,control,20.0,11,0,529.7248363494873,529.721736907959,951,1
280,control,20.0,11,1,529.7248363494873,4025.428056716919,951,1
281,control,21.0,21,1,527.2412300109863,527.2331237792969,1103,1
282,control,22.0,5,1,692.6651000976562,692.6589012145996,968,1
283,control,23.0,12,0,392.00520515441895,392.0021057128906,1155,1
284,control,24.0,12,1,393.54419708251953,393.5370445251465,1358,1
285,control,25.0,14,1,493.3648109436035,493.3629035949707,1387,1
286,control,26.0,5,1,624.1559982299805,624.1538524627686,890,1
287,control,27.0,11,1,494.60721015930176,494.60506439208984,1365,1
288,control,28.0,14,1,594.1581726074219,594.1550731658936,898,1
289,control,29.0,11,1,695.6348419189453,695.6310272216797,920,1
290,control,30.0,5,1,495.00107765197754,494.9979782104492,1210,1
291,control,5.0,18,1,98.44589233398438,791.0420894622803,1010,1
292,control,6.0,5,1,394.97900009155273,394.9770927429199,1263,1
293,control,7.0,5,1,99.94196891784668,626.7621517181396,1482,1
294,control,8.0,17,1,591.4468765258789,591.4440155029297,1263,1
295,control,9.0,8,1,400.1588821411133,893.3839797973633,986,1
296,control,10.0,5,0,497.78199195861816,497.77936935424805,1024,1
297,control,11.0,14,1,493.6690330505371,493.6668872833252,885,1
298,control,12.0,17,1,494.8620796203613,494.8611259460449,1310,1
299,control,13.0,8,1,494.1439628601074,494.1420555114746,1019,1
300,control,14.0,11,0,597.4521636962891,597.4490642547607,1002,1
301,control,15.0,17,0,893.7420845031738,893.7389850616455,1100,1
302,control,16.0,17,1,494.36497688293457,494.36211585998535,1390,1
303,control,17.0,12,1,497.4830150604248,497.478723526001,946,1
304,control,18.0,5,0,791.9301986694336,791.9301986694336,1362,1
305,control,19.0,20,1,658.696174621582,658.6940288543701,979,1
306,control,21.0,21,1,494.5859909057617,494.581937789917,893,1
307,control,22.0,5,0,659.8877906799316,659.8856449127197,1042,1
308,control,23.0,14,1,593.2958126068115,593.2917594909668,1054,1
309,control,24.0,12,1,494.97485160827637,494.97175216674805,893,1
310,control,25.0,14,0,492.86603927612305,492.86389350891113,910,1
311,control,26.0,5,1,824.0311145782471,824.0282535552979,1034,1
312,control,27.0,8,1,426.66172981262207,426.65886878967285,1339,1
313,control,28.0,12,1,594.1281318664551,594.1193103790283,918,1
314,control,29.0,9,1,824.1820335388184,824.1801261901855,1016,1
315,control,30.0,5,1,559.6122741699219,559.61012840271,1091,1
316,control,5.0,17,1,98.12021255493164,427.63233184814453,1138,1
317,control,6.0,2,1,97.42307662963867,591.7789936065674,1430,1
318,control,7.0,2,1,165.74788093566895,725.8586883544922,1002,1
319,control,8.0,15,1,330.80005645751953,560.1348876953125,1491,1
320,control,9.0,8,1,659.4967842102051,659.4879627227783,1405,1
321,control,10.0,8,1,591.2699699401855,591.2618637084961,1332,1
322,control,11.0,12,1,658.6048603057861,658.5960388183594,1163,1
323,control,12.0,17,1,164.96992111206055,592.5300121307373,895,1
324,control,13.0,8,1,855.4680347442627,855.4649353027344,1168,1
325,control,14.0,12,1,164.0477180480957,724.9510288238525,1329,1
326,control,15.0,18,1,659.1060161590576,659.1019630432129,1275,1
327,control,16.0,16,1,559.5958232879639,559.593915939331,1244,1
328,control,17.0,11,1,724.869966506958,724.8671054840088,1025,1
329,control,18.0,8,1,988.3613586425781,988.3592128753662,1140,1
330,control,19.0,20,1,922.5280284881592,922.52516746521,864,1
331,control,20.0,12,1,756.0749053955078,756.0739517211914,1423,1
332,control,21.0,20,1,591.8600559234619,591.8557643890381,1041,1
333,control,22.0,8,1,659.1379642486572,659.1360569000244,1030,1
334,control,23.0,14,0,757.0991516113281,757.0931911468506,1438,1
335,control,24.0,11,1,493.1650161743164,493.15690994262695,998,1
336,control,25.0,15,1,659.4192981719971,659.4171524047852,1232,1
337,control,26.0,2,0,658.4131717681885,658.4062576293945,1051,1
338,control,27.0,8,1,493.8840866088867,493.8821792602539,976,1
339,control,28.0,12,1,659.6260070800781,659.6219539642334,832,1
340,control,29.0,9,0,659.2042446136475,659.1999530792236,1444,1
341,control,30.0,2,0,659.1830253601074,659.1799259185791,1064,1
342,control,5.0,17,1,98.32906723022461,493.6990737915039,1044,1
343,control,6.0,2,1,164.49594497680664,724.6537208557129,1050,1
344,control,7.0,2,0,166.79000854492188,891.9610977172852,1242,1
345,control,8.0,15,0,165.15493392944336,427.365779876709,910,1
346,control,9.0,6,1,493.32618713378906,493.32404136657715,890,1
347,control,10.0,8,1,427.89292335510254,427.8841018676758,1076,1
348,control,11.0,12,1,492.2177791595459,492.2149181365967,1352,1
349,control,12.0,15,1,493.3948516845703,493.3919906616211,1302,1
350,control,13.0,6,1,692.0571327209473,692.051887512207,1393,1
351,control,14.0,12,1,392.76695251464844,392.7650451660156,917,1
352,control,15.0,18,1,399.0669250488281,399.0650177001953,1430,1
353,control,16.0,16,1,495.29314041137695,495.29004096984863,1295,1
354,control,17.0,11,1,493.32666397094727,493.3178424835205,1405,1
355,control,18.0,8,1,495.96714973449707,495.96333503723145,835,1
356,control,19.0,19,1,425.39381980895996,425.39095878601074,1059,1
357,control,20.0,11,1,522.7057933807373,522.7029323577881,1294,1
358,control,21.0,20,1,525.6881713867188,525.6850719451904,1101,1
359,control,22.0,8,0,498.09932708740234,498.096227645874,1112,1
360,control,23.0,15,1,694.0078735351562,694.005012512207,1016,1
361,control,24.0,11,1,624.7320175170898,624.7289180755615,1219,1
362,control,25.0,15,1,493.4430122375488,493.441104888916,1354,1
363,control,26.0,5,1,395.845890045166,395.8420753479004,1288,1
364,control,27.0,5,1,589.0328884124756,589.0309810638428,1346,1
365,control,28.0,11,1,493.65806579589844,493.6561584472656,1484,1
366,control,29.0,11,1,691.7760372161865,691.7738914489746,1066,1
367,control,30.0,5,0,593.268871307373,593.2629108428955,1480,1
368,control,5.0,15,1,100.18110275268555,394.57225799560547,1047,1
369,control,6.0,1,1,98.85311126708984,889.6961212158203,1073,1
370,control,7.0,5,1,98.6318588256836,492.8419589996338,1322,1
371,control,8.0,17,1,297.0700263977051,493.0529594421387,1027,1
372,control,9.0,6,0,987.3440265655518,987.3290061950684,1456,1
373,control,10.0,6,1,494.1849708557129,494.17877197265625,1031,1
374,control,11.0,11,1,493.804931640625,493.8027858734131,975,1
375,control,12.0,15,1,597.1579551696777,597.1548557281494,1182,1
376,control,13.0,6,1,396.26288414001465,396.26026153564453,813,1
377,control,14.0,11,1,493.76988410949707,493.76702308654785,1117,1
378,control,15.0,17,1,494.68994140625,494.6880340576172,1217,1
379,control,16.0,15,1,396.43406867980957,396.43001556396484,1109,1
380,control,17.0,9,1,527.3051261901855,527.3029804229736,982,1
381,control,18.0,6,1,425.9471893310547,425.93979835510254,1313,1
382,control,19.0,19,1,626.9009113311768,626.8987655639648,1349,1
383,control,20.0,11,0,691.6658878326416,691.6601657867432,1439,1
384,control,21.0,19,1,989.1469478607178,989.145040512085,1121,1
385,control,22.0,9,1,495.49198150634766,495.48792839050293,1136,1
386,control,23.0,15,1,594.7721004486084,594.7699546813965,1136,1
387,control,24.0,9,1,526.0899066925049,526.0889530181885,952,1
388,control,25.0,14,1,594.599723815918,594.5978164672852,1030,1
389,control,26.0,5,0,393.9030170440674,393.90110969543457,1338,1
390,control,27.0,5,1,592.3399925231934,592.3380851745605,1032,1
391,control,28.0,11,1,693.0160522460938,693.0160522460938,915,1
392,control,29.0,11,1,492.83695220947266,492.83480644226074,1052,1
393,control,30.0,8,1,791.8062210083008,791.8031215667725,924,1
1,quadbright,5.0,20,1,197.68762588500977,593.0628776550293,1299,1
2,quadbright,6.0,20,1,395.54619789123535,591.3121700286865,805,1
3,quadbright,7.0,20,1,198.39715957641602,593.2111740112305,889,1
4,quadbright,8.0,20,1,397.79210090637207,397.78828620910645,1006,1
5,quadbright,9.0,20,1,396.3203430175781,396.3150978088379,1376,1
6,quadbright,10.0,20,1,494.43888664245605,494.43793296813965,1479,1
7,quadbright,11.0,20,0,497.3471164703369,497.344970703125,976,1
8,quadbright,12.0,20,1,493.9301013946533,493.9289093017578,1304,1
9,quadbright,13.0,20,1,198.50587844848633,593.0039882659912,1363,1
10,quadbright,14.0,20,1,197.4799633026123,592.026948928833,837,1
11,quadbright,15.0,20,0,1186.9821548461914,1186.979055404663,1072,1
12,quadbright,16.0,20,1,1120.6457614898682,1120.6417083740234,1363,1
13,quadbright,17.0,20,1,623.8882541656494,623.8870620727539,1461,1
14,quadbright,18.0,20,1,494.13180351257324,494.1267967224121,930,1
15,quadbright,19.0,20,0,626.5671253204346,626.5621185302734,987,1
16,quadbright,20.0,20,1,594.7468280792236,594.7451591491699,1439,1
17,quadbright,21.0,20,1,493.6099052429199,493.6079978942871,802,1
18,quadbright,22.0,20,1,394.4268226623535,394.4220542907715,847,1
19,quadbright,23.0,20,1,526.3822078704834,526.3781547546387,1202,1
20,quadbright,24.0,20,1,724.8499393463135,724.8449325561523,1177,1
21,quadbright,25.0,20,1,526.317834854126,526.3140201568604,1288,1
22,quadbright,26.0,20,1,595.7398414611816,595.7369804382324,1032,1
23,quadbright,27.0,20,1,494.6789741516113,494.6770668029785,878,1
24,quadbright,28.0,20,1,594.4840908050537,594.4809913635254,890,1
25,quadbright,29.0,20,1,493.8621520996094,493.85905265808105,1382,1
26,quadbright,30.0,20,1,596.1511135101318,596.1501598358154,1329,1
27,quadbright,5.0,20,1,198.82798194885254,593.1909084320068,850,1
28,quadbright,6.0,20,1,198.9281177520752,593.7809944152832,1309,1
29,quadbright,7.0,20,1,395.33376693725586,889.7337913513184,1333,1
30,quadbright,8.0,20,1,495.7389831542969,495.73421478271484,1186,1
31,quadbright,9.0,20,1,100.1579761505127,498.89516830444336,1038,1
32,quadbright,10.0,20,1,494.6269989013672,494.62389945983887,1387,1
33,quadbright,11.0,23,1,498.9907741546631,498.9898204803467,881,1
34,quadbright,12.0,20,1,594.7062969207764,594.7000980377197,891,1
35,quadbright,13.0,20,1,393.50390434265137,393.50199699401855,1121,1
36,quadbright,14.0,20,1,527.2037982940674,527.2006988525391,1378,1
37,quadbright,15.0,23,1,491.91880226135254,491.9159412384033,1014,1
38,quadbright,16.0,20,1,494.10009384155273,494.0931797027588,1447,1
39,quadbright,17.0,20,1,431.1981201171875,431.1952590942383,1043,1
40,quadbright,18.0,20,1,822.7710723876953,822.767972946167,1052,1
41,quadbright,19.0,23,1,426.53799057006836,426.5317916870117,1196,1
42,quadbright,20.0,20,1,427.5078773498535,427.5028705596924,1398,1
43,quadbright,21.0,20,1,527.717113494873,527.7149677276611,1416,1
44,quadbright,22.0,20,1,1019.7951793670654,1019.7920799255371,1443,1
45,quadbright,23.0,20,1,496.6540336608887,496.65093421936035,1431,1
46,quadbright,24.0,20,1,591.547966003418,591.5467739105225,1116,1
47,quadbright,25.0,20,1,529.1779041290283,529.1750431060791,872,1
48,quadbright,26.0,20,1,527.7597904205322,527.756929397583,1282,1
49,quadbright,27.0,20,1,526.5541076660156,526.5500545501709,1238,1
50,quadbright,28.0,20,1,526.0369777679443,526.0341167449951,946,1
51,quadbright,29.0,20,1,396.8009948730469,396.79694175720215,1172,1
52,quadbright,30.0,20,1,496.16312980651855,496.16193771362305,845,1
53,quadbright,5.0,17,1,98.42991828918457,430.7878017425537,1217,1
54,quadbright,6.0,17,1,295.56775093078613,295.5629825592041,1089,1
55,quadbright,7.0,17,1,492.9630756378174,492.95997619628906,919,1
56,quadbright,8.0,17,1,494.4751262664795,494.4591522216797,1206,1
57,quadbright,9.0,17,1,395.3540325164795,395.34997940063477,1409,1
58,quadbright,10.0,17,1,492.84982681274414,492.8460121154785,1304,1
59,quadbright,11.0,23,1,297.2431182861328,493.2680130004883,874,1
60,quadbright,12.0,17,1,594.2273139953613,594.2251682281494,1002,1
61,quadbright,13.0,17,0,493.2401180267334,493.23391914367676,805,1
62,quadbright,14.0,17,1,493.99614334106445,493.99328231811523,1015,1
63,quadbright,15.0,23,1,592.7839279174805,592.7810668945312,1310,1
64,quadbright,16.0,17,1,989.0730381011963,989.0711307525635,1128,1
65,quadbright,17.0,17,1,493.95298957824707,493.9451217651367,1209,1
66,quadbright,18.0,17,1,591.9177532196045,591.9170379638672,822,1
67,quadbright,19.0,23,1,594.6409702301025,594.6359634399414,997,1
68,quadbright,20.0,17,1,493.78275871276855,493.77894401550293,1244,1
69,quadbright,21.0,17,1,591.2868976593018,591.2818908691406,1059,1
70,quadbright,22.0,17,1,495.53799629211426,495.53489685058594,852,1
71,quadbright,23.0,17,0,891.4871215820312,891.4811611175537,1209,1
72,quadbright,24.0,17,1,393.8889503479004,393.8870429992676,808,1
73,quadbright,25.0,17,1,597.14674949646,597.1436500549316,978,1
74,quadbright,26.0,17,1,394.03605461120605,394.0310478210449,1224,1
75,quadbright,27.0,17,1,526.3762474060059,526.3752937316895,986,1
76,quadbright,28.0,17,1,493.75391006469727,493.75009536743164,931,1
77,quadbright,29.0,17,1,525.7751941680908,525.7680416107178,1340,1
78,quadbright,30.0,17,1,1021.5628147125244,1021.5599536895752,1399,1
79,quadbright,5.0,17,1,97.13387489318848,392.1318054199219,821,1
80,quadbright,6.0,17,1,131.3178539276123,526.16286277771,841,1
81,quadbright,7.0,17,1,99.04599189758301,494.16208267211914,1184,1
82,quadbright,8.0,17,1,99.11799430847168,990.9617900848389,914,1
83,quadbright,9.0,17,1,97.58305549621582,397.5510597229004,1060,1
84,quadbright,10.0,17,1,492.6300048828125,492.6271438598633,1224,1
85,quadbright,11.0,20,1,491.5127754211426,491.51086807250977,1209,1
86,quadbright,12.0,17,1,394.7427272796631,394.7410583496094,1238,1
87,quadbright,13.0,20,1,493.196964263916,493.1907653808594,1196,1
88,quadbright,14.0,17,1,395.9798812866211,395.97606658935547,945,1
89,quadbright,15.0,20,1,394.9878215789795,394.98400688171387,1270,1
90,quadbright,16.0,17,1,989.6271228790283,989.6230697631836,1202,1
91,quadbright,17.0,17,1,394.5651054382324,394.5610523223877,1250,1
92,quadbright,18.0,17,1,525.4311561584473,525.4220962524414,1217,1
93,quadbright,19.0,20,1,594.3779945373535,594.3748950958252,909,1
94,quadbright,20.0,17,1,592.7917957305908,592.7879810333252,1444,1
95,quadbright,21.0,17,1,590.4603004455566,590.4560089111328,1230,1
96,quadbright,22.0,17,1,493.47686767578125,493.4709072113037,950,1
97,quadbright,23.0,20,1,497.97701835632324,497.9739189147949,1364,1
98,quadbright,24.0,17,1,395.1711654663086,395.16615867614746,1060,1
99,quadbright,25.0,17,1,594.1140651702881,594.1109657287598,852,1
100,quadbright,26.0,17,1,1185.4658126831055,1185.4639053344727,1247,1
101,quadbright,27.0,17,0,989.0501499176025,989.0470504760742,1217,1
102,quadbright,28.0,17,1,494.40717697143555,494.4019317626953,900,1
103,quadbright,29.0,17,1,593.1658744812012,593.163013458252,1023,1
104,quadbright,30.0,17,1,593.28293800354,593.2798385620117,1212,1
105,quadbright,5.0,14,1,197.4010467529297,593.2049751281738,1125,1
106,quadbright,6.0,14,1,198.2290744781494,593.3241844177246,1125,1
107,quadbright,7.0,14,1,399.4119167327881,990.0028705596924,1182,1
108,quadbright,8.0,14,1,98.31404685974121,593.0471420288086,1141,1
109,quadbright,9.0,14,1,393.61000061035156,393.60618591308594,1273,1
110,quadbright,10.0,14,1,494.55809593200684,494.5528507232666,1375,1
111,quadbright,11.0,20,1,493.40224266052246,493.394136428833,1120,1
112,quadbright,12.0,14,1,593.0397510528564,593.0368900299072,1007,1
113,quadbright,13.0,20,1,493.72386932373047,493.72005462646484,1416,1
114,quadbright,14.0,14,1,494.05980110168457,494.05694007873535,965,1
115,quadbright,15.0,20,1,593.3020114898682,593.299150466919,1033,1
116,quadbright,16.0,14,1,396.99816703796387,396.9912528991699,1009,1
117,quadbright,17.0,14,1,591.8562412261963,591.8540954589844,905,1
118,quadbright,18.0,14,0,2208.801031112671,2208.7979316711426,1459,0
119,quadbright,18.0,14,1,492.97618865966797,492.97213554382324,991,0
120,quadbright,18.0,14,0,890.4891014099121,890.484094619751,880,1
121,quadbright,19.0,20,1,593.5261249542236,593.5170650482178,1470,1
122,quadbright,20.0,14,1,395.1220512390137,395.11609077453613,1101,1
123,quadbright,21.0,14,1,494.3559169769287,494.3528175354004,998,1
124,quadbright,22.0,14,1,889.517068862915,889.5127773284912,1119,1
125,quadbright,23.0,20,1,889.7929191589355,889.7840976715088,884,1
126,quadbright,24.0,14,1,494.98796463012695,494.9839115142822,1240,1
127,quadbright,25.0,14,1,494.8101043701172,494.8079586029053,1254,1
128,quadbright,26.0,14,1,493.5770034790039,493.56889724731445,1266,1
129,quadbright,27.0,20,1,1589.8020267486572,1589.8020267486572,931,1
130,quadbright,28.0,14,1,594.1219329833984,594.1181182861328,969,1
131,quadbright,29.0,14,1,1418.428897857666,1418.428897857666,1069,1
132,quadbright,30.0,14,1,725.167989730835,725.1670360565186,1061,1
133,quadbright,5.0,14,1,98.39105606079102,395.2651023864746,1141,1
134,quadbright,6.0,14,1,199.99408721923828,594.318151473999,1319,1
135,quadbright,7.0,14,1,197.21388816833496,593.4739112854004,1277,1
136,quadbright,8.0,14,1,691.4870738983154,691.4818286895752,924,1
137,quadbright,9.0,14,1,98.91104698181152,1090.7089710235596,1065,1
138,quadbright,10.0,14,1,492.603063583374,492.6002025604248,811,1
139,quadbright,11.0,17,1,395.4339027404785,395.427942276001,828,1
140,quadbright,12.0,14,1,591.7620658874512,591.7582511901855,847,1
141,quadbright,13.0,18,1,98.8321304321289,493.6051368713379,930,1
142,quadbright,14.0,14,1,497.4057674407959,497.4048137664795,1252,1
143,quadbright,15.0,17,1,888.3538246154785,888.3469104766846,1268,1
144,quadbright,16.0,14,1,495.2740669250488,495.2719211578369,1429,1
145,quadbright,17.0,14,1,494.3990707397461,494.39406394958496,996,1
146,quadbright,18.0,17,1,596.0302352905273,596.027135848999,1496,1
147,quadbright,19.0,17,1,591.4959907531738,591.4950370788574,806,1
148,quadbright,20.0,14,1,593.674898147583,593.6691761016846,848,1
149,quadbright,21.0,14,1,495.7132339477539,495.70417404174805,1205,1
150,quadbright,22.0,14,1,791.5158271789551,791.5120124816895,1322,1
151,quadbright,23.0,18,1,492.57397651672363,492.5661087036133,982,1
152,quadbright,24.0,14,1,492.8858280181885,492.88105964660645,861,1
153,quadbright,25.0,14,1,593.0261611938477,593.0230617523193,925,1
154,quadbright,26.0,14,1,891.8559551239014,891.8540477752686,1382,1
155,quadbright,27.0,20,1,495.04899978637695,495.0451850891113,1444,1
156,quadbright,28.0,14,0,592.8840637207031,592.8812026977539,962,1
157,quadbright,29.0,14,1,624.3801116943359,624.3720054626465,1141,1
158,quadbright,30.0,14,1,494.1709041595459,494.1689968109131,1070,1
159,quadbright,5.0,11,1,296.2038516998291,296.2000370025635,1124,1
160,quadbright,6.0,11,1,1187.2398853302002,1187.2329711914062,858,0
161,quadbright,6.0,11,1,394.05298233032227,394.05107498168945,1317,1
162,quadbright,7.0,11,1,97.63908386230469,494.1990375518799,949,1
163,quadbright,8.0,11,1,99.59793090820312,395.75910568237305,954,1
164,quadbright,9.0,11,1,98.81711006164551,394.06394958496094,1100,1
165,quadbright,10.0,11,1,594.2120552062988,594.2108631134033,1256,1
166,quadbright,11.0,17,1,394.4270610809326,394.4230079650879,1275,1
167,quadbright,12.0,11,1,625.7109642028809,625.6978511810303,892,1
168,quadbright,13.0,18,1,395.550012588501,395.54715156555176,1332,1
169,quadbright,14.0,11,1,597.088098526001,597.0849990844727,1189,1
170,quadbright,15.0,17,1,399.75810050964355,399.75619316101074,1118,1
171,quadbright,16.0,11,0,493.1931495666504,493.19005012512207,810,1
172,quadbright,17.0,11,1,592.167854309082,592.1647548675537,1296,1
173,quadbright,18.0,17,1,497.0271587371826,497.0259666442871,1263,1
174,quadbright,19.0,17,1,493.4980869293213,493.4961795806885,1334,1
175,quadbright,20.0,11,1,394.55699920654297,394.55389976501465,1226,1
176,quadbright,21.0,11,1,889.9259567260742,889.9178504943848,1343,1
177,quadbright,22.0,11,1,592.473030090332,592.4699306488037,1241,1
178,quadbright,23.0,18,1,490.47303199768066,490.47017097473145,1021,1
179,quadbright,24.0,11,1,690.6771659851074,690.6719207763672,1093,1
180,quadbright,25.0,11,1,396.075963973999,396.06499671936035,1161,1
181,quadbright,26.0,11,1,494.92597579956055,494.920015335083,809,1
182,quadbright,27.0,18,1,494.9300289154053,494.92812156677246,1262,1
183,quadbright,28.0,17,1,593.7860012054443,593.7838554382324,1070,1
184,quadbright,29.0,11,0,891.1917209625244,891.1890983581543,846,1
185,quadbright,30.0,11,0,1192.2590732574463,1192.255973815918,808,1
186,quadbright,5.0,11,1,98.94704818725586,494.31800842285156,1177,1
187,quadbright,6.0,11,1,196.5198516845703,592.789888381958,1463,1
188,quadbright,7.0,11,1,199.40996170043945,593.9919948577881,836,1
189,quadbright,8.0,11,1,99.73812103271484,494.35901641845703,820,1
190,quadbright,9.0,11,1,497.39599227905273,497.3950386047363,1340,1
191,quadbright,10.0,11,1,593.0931568145752,593.0910110473633,1287,1
192,quadbright,11.0,14,1,1024.0848064422607,1024.0819454193115,815,1
193,quadbright,12.0,11,1,395.16687393188477,395.16496658325195,1332,1
194,quadbright,13.0,17,1,728.6920547485352,728.6908626556396,818,1
195,quadbright,14.0,11,1,525.609016418457,525.6021022796631,1118,1
196,quadbright,15.0,14,1,489.3679618835449,489.3648624420166,1432,1
197,quadbright,16.0,14,1,1418.6429977416992,1418.6408519744873,1267,1
198,quadbright,17.0,11,1,1022.2091674804688,1022.2082138061523,850,1
199,quadbright,18.0,15,1,592.689037322998,592.6871299743652,1488,1
200,quadbright,19.0,14,0,197.51715660095215,597.3200798034668,1163,1
201,quadbright,20.0,11,0,724.1711616516113,724.1668701171875,881,1
202,quadbright,21.0,11,1,1023.8738059997559,1023.8709449768066,966,1
203,quadbright,22.0,11,1,922.3971366882324,922.3949909210205,961,1
204,quadbright,23.0,17,1,198.3931064605713,398.029088973999,1400,1
205,quadbright,24.0,11,1,624.9940395355225,624.9909400939941,1227,1
206,quadbright,25.0,11,1,592.3581123352051,592.3559665679932,1044,1
207,quadbright,26.0,11,1,594.0029621124268,593.9960479736328,1192,1
208,quadbright,27.0,18,1,590.7778739929199,590.7769203186035,1064,1
209,quadbright,28.0,17,1,525.5763530731201,525.5720615386963,1156,1
210,quadbright,29.0,14,1,594.7940349578857,594.7902202606201,1385,1
211,quadbright,30.0,14,0,1091.6039943695068,1091.6008949279785,1012,1
212,quadbright,5.0,8,1,890.5673027038574,890.5651569366455,890,1
213,quadbright,6.0,8,1,493.41297149658203,493.4070110321045,1078,1
214,quadbright,7.0,8,1,99.64299201965332,495.0277805328369,1406,1
215,quadbright,8.0,8,1,395.1232433319092,395.11799812316895,1100,1
216,quadbright,9.0,8,1,198.2100009918213,593.2767391204834,1356,1
217,quadbright,10.0,8,1,395.3578472137451,395.35069465637207,1402,1
218,quadbright,11.0,14,1,592.7379131317139,592.7338600158691,1339,1
219,quadbright,12.0,8,1,493.4840202331543,493.47710609436035,1225,1
220,quadbright,13.0,17,1,494.4121837615967,494.4028854370117,958,1
221,quadbright,14.0,8,1,593.0068492889404,593.0020809173584,1250,1
222,quadbright,15.0,14,1,525.6130695343018,525.6099700927734,985,1
223,quadbright,16.0,14,1,822.6768970489502,822.6737976074219,944,1
224,quadbright,17.0,8,1,1022.2649574279785,1022.2620964050293,846,1
225,quadbright,18.0,15,1,526.4360904693604,526.432991027832,1411,1
226,quadbright,19.0,17,1,394.1352367401123,394.1330909729004,1144,1
227,quadbright,20.0,14,1,493.07703971862793,493.0751323699951,1291,1
228,quadbright,21.0,8,0,890.2242183685303,890.2180194854736,838,1
229,quadbright,22.0,8,0,494.10319328308105,494.10009384155273,1412,1
230,quadbright,23.0,17,1,427.0179271697998,427.0153045654297,885,1
231,quadbright,24.0,8,1,692.3081874847412,692.3041343688965,877,1
232,quadbright,25.0,8,1,692.6028728485107,692.6009654998779,1058,1
233,quadbright,26.0,8,1,492.54703521728516,492.54393577575684,1339,1
234,quadbright,27.0,17,1,987.4880313873291,987.4858856201172,1032,1
235,quadbright,28.0,15,1,493.2599067687988,493.2589530944824,812,1
236,quadbright,29.0,14,1,625.4708766937256,625.46706199646,1020,1
237,quadbright,30.0,17,1,923.5682487487793,923.5601425170898,1419,1
238,quadbright,5.0,8,1,198.87685775756836,625.2501010894775,801,1
239,quadbright,6.0,8,1,198.32611083984375,592.8840637207031,881,1
240,quadbright,7.0,8,1,492.4590587615967,492.4581050872803,933,1
241,quadbright,8.0,8,1,791.1179065704346,791.1138534545898,863,1
242,quadbright,9.0,8,1,492.9239749908447,492.9189682006836,1383,1
243,quadbright,10.0,8,1,1781.0170650482178,1781.0139656066895,953,1
244,quadbright,11.0,11,0,1385.9381675720215,1385.9360218048096,1484,1
245,quadbright,12.0,8,1,97.72229194641113,690.6251907348633,1264,1
246,quadbright,13.0,15,1,394.2761421203613,394.2742347717285,908,1
247,quadbright,14.0,8,0,822.1712112426758,822.1650123596191,1391,1
248,quadbright,15.0,11,0,394.1490650177002,394.1459655761719,882,1
249,quadbright,16.0,12,1,692.3160552978516,692.314863204956,1125,1
250,quadbright,17.0,8,1,1613.7750148773193,1613.769292831421,1455,1
251,quadbright,18.0,14,1,494.189977645874,494.1880702972412,1427,1
252,quadbright,19.0,17,1,592.8449630737305,592.8421020507812,1452,1
253,quadbright,20.0,14,1,527.8048515319824,527.7988910675049,1084,1
254,quadbright,21.0,11,0,692.8079128265381,692.8057670593262,901,1
255,quadbright,22.0,11,1,492.94066429138184,492.9358959197998,920,1
256,quadbright,23.0,15,1,494.4608211517334,494.4579601287842,879,1
257,quadbright,24.0,8,0,791.4628982543945,791.4609909057617,1037,1
258,quadbright,25.0,8,1,792.9179668426514,792.914867401123,1259,1
259,quadbright,26.0,8,1,592.5922393798828,592.5881862640381,1424,1
260,quadbright,27.0,17,1,593.3539867401123,593.3477878570557,968,1
261,quadbright,28.0,15,1,494.0168857574463,494.0149784088135,1440,1
262,quadbright,29.0,12,0,593.3871269226074,593.3840274810791,1440,1
263,quadbright,30.0,17,0,494.11582946777344,494.1129684448242,909,1
264,quadbright,5.0,5,1,398.6811637878418,398.6780643463135,1288,1
265,quadbright,6.0,5,1,195.78313827514648,493.78204345703125,1294,1
266,quadbright,7.0,5,1,194.52309608459473,425.5051612854004,1119,1
267,quadbright,8.0,5,0,98.88672828674316,427.4709224700928,1367,1
268,quadbright,9.0,5,1,592.5450325012207,592.5390720367432,1292,1
269,quadbright,10.0,5,1,296.5819835662842,296.57697677612305,894,1
270,quadbright,11.0,14,1,590.7063484191895,590.7032489776611,826,1
271,quadbright,12.0,5,1,592.4060344696045,592.3960208892822,1082,1
272,quadbright,13.0,15,1,493.29090118408203,493.2861328125,1141,1
273,quadbright,14.0,11,1,493.3137893676758,493.302583694458,924,1
274,quadbright,15.0,14,0,198.64797592163086,692.8400993347168,1235,1
275,quadbright,16.0,12,1,695.3396797180176,695.3380107879639,1050,1
276,quadbright,17.0,5,0,624.2427825927734,624.2408752441406,1009,1
277,quadbright,18.0,14,1,1679.8229217529297,1679.8210144042969,1099,1
278,quadbright,19.0,15,1,492.95902252197266,492.95592308044434,1497,1
279,quadbright,20.0,12,1,293.2169437408447,293.212890625,1166,1
280,quadbright,21.0,14,0,493.72005462646484,493.7150478363037,1296,1
281,quadbright,22.0,11,1,694.2811012268066,694.2780017852783,825,1
282,quadbright,23.0,15,1,492.9039478302002,492.89393424987793,1155,1
283,quadbright,24.0,11,1,625.6082057952881,625.6051063537598,1047,1
284,quadbright,25.0,5,0,922.3108291625977,922.307014465332,1076,1
285,quadbright,26.0,5,0,691.770076751709,691.7669773101807,994,1
286,quadbright,27.0,15,1,691.8981075286865,691.892147064209,1037,1
287,quadbright,28.0,14,0,594.4209098815918,594.4089889526367,1436,1
288,quadbright,29.0,14,1,891.4759159088135,891.4737701416016,1369,1
289,quadbright,30.0,18,1,493.9742088317871,493.96729469299316,1025,1
290,quadbright,5.0,5,1,197.38221168518066,590.1172161102295,806,1
291,quadbright,6.0,5,1,99.12490844726562,493.7779903411865,1218,1
292,quadbright,7.0,5,1,99.63703155517578,493.95298957824707,1499,1
293,quadbright,8.0,8,1,99.69091415405273,494.8599338531494,1417,1
294,quadbright,9.0,5,1,792.1528816223145,792.151927947998,977,1
295,quadbright,10.0,5,1,489.7310733795166,489.7291660308838,802,1
296,quadbright,11.0,14,1,400.24399757385254,988.0261421203613,1395,1
297,quadbright,12.0,5,1,165.59720039367676,758.0771446228027,813,1
298,quadbright,13.0,14,1,494.326114654541,494.31324005126953,1193,1
299,quadbright,14.0,11,1,823.5738277435303,823.5697746276855,948,1
300,quadbright,15.0,15,1,724.402904510498,724.4019508361816,1043,1
301,quadbright,16.0,11,1,559.9818229675293,559.9777698516846,1132,1
302,quadbright,17.0,8,1,890.0330066680908,890.0320529937744,1489,1
303,quadbright,18.0,12,1,756.6521167755127,756.6483020782471,1315,1
304,quadbright,19.0,15,1,493.5770034790039,493.574857711792,1037,1
305,quadbright,20.0,12,1,561.4230632781982,561.4149570465088,1154,1
306,quadbright,21.0,17,0,592.9508209228516,592.9489135742188,993,1
307,quadbright,22.0,9,1,526.7360210418701,526.7319679260254,921,1
308,quadbright,23.0,14,0,659.6212387084961,659.6171855926514,1093,1
309,quadbright,24.0,11,1,658.829927444458,658.8230133056641,1137,1
310,quadbright,25.0,8,0,1153.9099216461182,1153.9080142974854,1099,1
311,quadbright,26.0,8,0,658.5910320281982,658.5888862609863,905,1
312,quadbright,27.0,15,1,923.6049652099609,923.5999584197998,1376,1
313,quadbright,28.0,15,0,4420.977830886841,4420.973062515259,1235,1
314,quadbright,29.0,14,0,725.3739833831787,725.3689765930176,1427,1
315,quadbright,30.0,18,1,758.0268383026123,758.0249309539795,1009,1
316,quadbright,5.0,2,1,164.86072540283203,658.4079265594482,993,1
317,quadbright,6.0,2,1,263.36121559143066,922.9300022125244,1351,1
318,quadbright,7.0,2,0,593.0728912353516,593.0709838867188,1016,1
319,quadbright,8.0,8,1,756.8819522857666,756.8762302398682,1282,1
320,quadbright,9.0,2,0,757.3740482330322,757.3699951171875,855,1
321,quadbright,10.0,2,1,166.06593132019043,659.6460342407227,1184,1
322,quadbright,11.0,12,1,163.93709182739258,657.7098369598389,921,1
323,quadbright,12.0,2,1,822.7157592773438,822.7138519287109,1245,1
324,quadbright,13.0,14,1,593.1820869445801,593.1799411773682,1036,1
325,quadbright,14.0,9,1,659.6720218658447,659.6667766571045,1127,1
326,quadbright,15.0,15,1,592.9899215698242,592.9858684539795,1444,1
327,quadbright,16.0,11,0,656.2192440032959,656.217098236084,1024,1
328,quadbright,17.0,8,1,493.35193634033203,493.3450222015381,828,1
329,quadbright,18.0,12,1,494.0629005432129,494.0609931945801,857,1
330,quadbright,19.0,14,1,758.004903793335,757.9991817474365,844,1
331,quadbright,20.0,11,1,592.993974685669,592.9877758026123,837,1
332,quadbright,21.0,20,1,494.4748878479004,494.4732189178467,1359,1
333,quadbright,22.0,9,1,757.6839923858643,757.6799392700195,1348,1
334,quadbright,23.0,15,1,426.78189277648926,426.7749786376953,1482,1
335,quadbright,24.0,9,1,494.45199966430664,494.4441318511963,1019,1
336,quadbright,25.0,11,1,493.5159683227539,493.50762367248535,1016,1
337,quadbright,26.0,11,1,692.6126480102539,692.6097869873047,1193,1
338,quadbright,27.0,14,1,592.4398899078369,592.432975769043,1239,1
339,quadbright,28.0,17,1,493.38793754577637,493.3817386627197,1011,1
340,quadbright,29.0,15,1,500.37407875061035,500.37193298339844,1091,1
341,quadbright,30.0,17,1,525.3498554229736,525.3410339355469,1044,1
342,quadbright,5.0,2,0,98.2351303100586,627.9950141906738,1418,1
343,quadbright,6.0,2,1,198.29916954040527,690.2163028717041,1256,1
344,quadbright,7.0,5,0,197.41582870483398,592.2219753265381,1306,1
345,quadbright,8.0,6,1,200.81782341003418,594.3989753723145,1204,1
346,quadbright,9.0,5,1,596.7910289764404,596.790075302124,1268,1
347,quadbright,10.0,2,1,592.8680896759033,592.8637981414795,1344,1
348,quadbright,11.0,12,1,894.38796043396,894.38796043396,1491,1
349,quadbright,12.0,2,0,592.8540229797363,592.8480625152588,984,1
350,quadbright,13.0,12,1,493.54100227355957,493.5328960418701,1376,1
351,quadbright,14.0,9,1,426.6350269317627,426.624059677124,1081,1
352,quadbright,15.0,14,1,826.8289566040039,826.8280029296875,962,1
353,quadbright,16.0,12,1,622.9109764099121,622.9100227355957,1067,1
354,quadbright,17.0,6,0,592.2720432281494,592.2648906707764,1259,1
355,quadbright,18.0,11,0,625.2179145812988,625.2138614654541,1170,1
356,quadbright,19.0,14,1,594.2389965057373,594.2330360412598,901,1
357,quadbright,20.0,11,1,493.3960437774658,493.3910369873047,1119,1
358,quadbright,21.0,20,0,394.5019245147705,394.49405670166016,1210,1
359,quadbright,22.0,8,1,593.4610366821289,593.4572219848633,1162,1
360,quadbright,23.0,15,1,592.411994934082,592.4067497253418,911,1
361,quadbright,24.0,9,0,491.75095558166504,491.75000190734863,804,1
362,quadbright,25.0,11,1,494.19713020324707,494.19331550598145,1288,1
363,quadbright,26.0,11,1,497.5018501281738,497.4992275238037,1081,1
364,quadbright,27.0,14,1,427.13189125061035,427.12998390197754,1229,1
365,quadbright,28.0,17,1,426.91516876220703,426.9123077392578,1458,1
366,quadbright,29.0,15,1,527.2300243377686,527.2278785705566,815,1
367,quadbright,30.0,17,1,528.1002521514893,528.0942916870117,1303,1
368,quadbright,5.0,5,1,197.48187065124512,691.9689178466797,1245,1
369,quadbright,6.0,1,1,198.23932647705078,692.4242973327637,1242,1
370,quadbright,7.0,8,1,98.77204895019531,593.5890674591064,953,1
371,quadbright,8.0,6,1,887.7358436584473,887.7339363098145,915,1
372,quadbright,9.0,5,1,493.7551021575928,493.75200271606445,1018,1
373,quadbright,10.0,1,1,692.8009986877441,692.7988529205322,1358,1
374,quadbright,11.0,11,1,495.50318717956543,495.5010414123535,888,1
375,quadbright,12.0,5,1,590.7418727874756,590.7399654388428,925,1
376,quadbright,13.0,12,1,493.56794357299805,493.5619831085205,1236,1
377,quadbright,14.0,8,1,395.7061767578125,395.7040309906006,1478,1
378,quadbright,15.0,14,1,394.00196075439453,393.9981460571289,1289,1
379,quadbright,16.0,12,1,1022.2370624542236,1022.2320556640625,1445,1
380,quadbright,17.0,8,1,691.6708946228027,691.6670799255371,1401,1
381,quadbright,18.0,12,1,497.9820251464844,497.97892570495605,1492,1
382,quadbright,19.0,12,1,493.5579299926758,493.5572147369385,1271,1
383,quadbright,20.0,9,1,592.0078754425049,592.0028686523438,1296,1
384,quadbright,21.0,21,1,494.5859909057617,494.5809841156006,1494,1
385,quadbright,22.0,8,0,400.51794052124023,400.515079498291,1314,1
386,quadbright,23.0,14,1,593.994140625,593.9919948577881,1202,1
387,quadbright,24.0,11,1,493.5638904571533,493.55506896972656,940,1
388,quadbright,25.0,9,1,592.8671360015869,592.8640365600586,1383,1
389,quadbright,26.0,9,1,504.22191619873047,504.22096252441406,971,1
390,quadbright,27.0,12,0,492.3529624938965,492.3520088195801,1297,1
391,quadbright,28.0,16,1,492.5990104675293,492.59495735168457,802,1
392,quadbright,29.0,14,0,395.2901363372803,395.28799057006836,1004,1
