trial,condition,eccentricity,magnitude,correct,srt_ms,keyboard_rt_ms,pre_change_ms,valid
1,control,5.0,20,1,4684.5879554748535,4684.583902359009,823,1
2,control,6.0,20,1,99.16019439697266,1004.4190883636475,1206,1
3,control,7.0,20,1,99.65991973876953,781.5110683441162,1146,1
4,control,8.0,20,1,988.8458251953125,988.839864730835,1390,1
5,control,9.0,20,1,98.57487678527832,890.4969692230225,833,1
6,control,10.0,20,1,943.321943283081,943.3197975158691,898,1
7,control,11.0,20,1,197.99399375915527,890.1689052581787,978,1
8,control,12.0,20,1,812.7970695495605,812.7961158752441,1395,1
9,control,13.0,20,1,692.9841041564941,692.9831504821777,1189,1
10,control,14.0,20,1,692.1811103820801,692.1780109405518,1029,1
11,control,15.0,20,1,902.1449089050293,902.1420478820801,1228,1
12,control,16.0,20,0,2606.736898422241,2606.7240238189697,1129,1
13,control,17.0,20,0,1613.9910221099854,1613.9898300170898,902,1
14,control,18.0,20,1,891.1118507385254,891.110897064209,999,1
15,control,19.0,20,1,911.7801189422607,911.7789268493652,1013,1
16,control,20.0,20,1,791.8803691864014,791.8791770935059,1390,1
17,control,21.0,20,1,703.6449909210205,703.6428451538086,1202,1
18,control,22.0,20,1,990.286111831665,990.2849197387695,1496,1
19,control,23.0,20,1,582.996129989624,582.9951763153076,1280,1
20,control,24.0,20,1,890.8951282501221,890.8941745758057,1093,1
21,control,25.0,20,1,891.1361694335938,891.1349773406982,1023,1
22,control,26.0,20,1,721.3129997253418,721.3099002838135,995,1
23,control,27.0,20,1,894.0880298614502,894.0858840942383,1319,1
24,control,28.0,20,1,890.9850120544434,890.9811973571777,813,1
25,control,29.0,20,1,880.2957534790039,880.2947998046875,949,1
26,control,30.0,20,0,2782.749891281128,2782.742977142334,1246,0
27,control,30.0,20,1,680.9530258178711,680.9520721435547,892,0
28,control,30.0,20,1,890.9668922424316,890.9611701965332,999,1
29,control,5.0,20,1,197.83401489257812,791.827917098999,1057,1
30,control,6.0,20,1,97.9452133178711,590.6970500946045,1173,1
31,control,7.0,20,1,98.91510009765625,624.9310970306396,1449,1
32,control,8.0,20,1,596.184253692627,596.182107925415,837,1
33,control,9.0,20,1,779.6330451965332,779.6320915222168,1276,1
34,control,10.0,20,1,823.58717918396,823.585033416748,1144,1
35,control,11.0,20,1,534.7957611083984,534.7940921783447,963,1
36,control,12.0,20,1,681.3228130340576,681.3218593597412,1091,1
37,control,13.0,20,1,799.3998527526855,799.3972301483154,1065,1
38,control,14.0,20,1,889.3496990203857,889.3458843231201,1236,1
39,control,15.0,20,1,614.8080825805664,614.8080825805664,1107,1
40,control,16.0,23,1,990.3862476348877,990.3810024261475,1212,1
41,control,17.0,23,1,891.0901546478271,891.0870552062988,1411,1
42,control,18.0,20,1,490.659236907959,490.65709114074707,1342,1
43,control,19.0,20,1,986.1819744110107,986.1798286437988,864,1
44,control,20.0,20,1,790.780782699585,790.7767295837402,896,1
45,control,21.0,20,1,891.3919925689697,891.3862705230713,1276,1
46,control,22.0,20,1,590.458869934082,590.4557704925537,1413,1
47,control,23.0,20,1,901.5910625457764,901.587963104248,1110,1
48,control,24.0,20,1,692.3828125,692.378044128418,1003,1
49,control,25.0,20,1,781.857967376709,781.8570137023926,910,1
50,control,26.0,20,1,492.9471015930176,492.94209480285645,1031,1
51,control,27.0,20,0,1409.8341464996338,1409.8320007324219,1439,1
52,control,28.0,20,1,592.2799110412598,592.278003692627,1367,1
53,control,29.0,20,1,890.35964012146,890.3589248657227,1352,1
54,control,30.0,20,0,1317.0390129089355,1317.0371055603027,1335,1
55,control,5.0,17,1,125.5950927734375,718.4970378875732,865,1
56,control,6.0,17,1,197.89385795593262,891.2270069122314,1457,1
57,control,7.0,17,1,102.42462158203125,1981.8928241729736,1136,1
58,control,8.0,17,1,198.8072395324707,693.2761669158936,1493,1
59,control,9.0,17,1,790.6079292297363,790.6041145324707,964,1
60,control,10.0,17,1,1309.3650341033936,1309.3640804290771,1050,1
61,control,11.0,17,1,593.0497646331787,593.0488109588623,1027,1
62,control,12.0,17,1,912.0891094207764,912.08815574646,926,1
63,control,13.0,17,1,593.3940410614014,593.3918952941895,1411,1
64,control,14.0,17,1,890.0132179260254,890.012264251709,888,1
65,control,15.0,17,1,691.6520595550537,691.641092300415,956,1
66,control,16.0,23,1,624.8137950897217,624.8118877410889,983,1
67,control,17.0,23,1,685.6670379638672,685.6660842895508,1263,1
68,control,18.0,17,1,428.6541938781738,428.6460876464844,837,1
69,control,19.0,17,1,592.6389694213867,592.6358699798584,1262,1
70,control,20.0,17,1,694.9267387390137,694.9248313903809,1356,1
71,control,21.0,17,1,693.8612461090088,693.8602924346924,864,1
72,control,22.0,17,1,484.18498039245605,484.18498039245605,944,1
73,control,23.0,17,1,493.59893798828125,493.59583854675293,993,1
74,control,24.0,17,1,592.7450656890869,592.742919921875,1409,1
75,control,25.0,17,1,692.1591758728027,692.1532154083252,1001,1
76,control,26.0,17,1,591.8788909912109,591.8669700622559,1270,1
77,control,27.0,23,0,695.9812641143799,695.976972579956,869,1
78,control,28.0,17,1,494.110107421875,494.1079616546631,1347,1
79,control,29.0,17,1,493.7007427215576,493.6990737915039,968,1
80,control,30.0,23,1,781.4888954162598,781.4879417419434,935,1
81,control,5.0,17,1,197.99017906188965,713.9861583709717,1092,1
82,control,6.0,17,1,100.13699531555176,780.4899215698242,1431,1
83,control,7.0,17,1,99.61295127868652,583.6889743804932,965,1
84,control,8.0,17,1,493.42799186706543,493.4251308441162,813,1
85,control,9.0,17,1,492.7365779876709,492.7349090576172,1461,1
86,control,10.0,17,1,624.7189044952393,624.71604347229,1397,1
87,control,11.0,17,1,724.7130870819092,724.7109413146973,1114,1
88,control,12.0,17,1,691.9460296630859,691.9417381286621,1461,1
89,control,13.0,17,1,1771.1739540100098,1771.1727619171143,975,1
90,control,14.0,17,1,1383.3401203155518,1383.3389282226562,1253,1
91,control,15.0,17,1,493.2427406311035,493.2389259338379,1200,1
92,control,16.0,20,1,493.3469295501709,493.3428764343262,802,1
93,control,17.0,20,1,693.2339668273926,693.2327747344971,1178,1
94,control,18.0,17,1,1086.562156677246,1086.557149887085,1304,1
95,control,19.0,17,1,813.643217086792,813.6420249938965,1323,1
96,control,20.0,17,1,727.4718284606934,727.470874786377,1037,1
97,control,21.0,17,1,2794.3387031555176,2794.337749481201,1030,1
98,control,22.0,17,1,780.53879737854,780.5378437042236,1144,1
99,control,23.0,17,1,1878.1847953796387,1878.1790733337402,871,1
100,control,24.0,17,1,791.7060852050781,791.7020320892334,937,1
101,control,25.0,17,1,593.3339595794678,593.332052230835,1285,1
102,control,26.0,17,1,782.7222347259521,782.7210426330566,828,1
103,control,27.0,26,1,780.5681228637695,780.5671691894531,930,1
104,control,28.0,17,1,879.3699741363525,879.3690204620361,1487,1
105,control,29.0,17,1,824.8350620269775,824.8341083526611,1359,1
106,control,30.0,23,1,714.9341106414795,714.932918548584,1443,1
107,control,5.0,14,1,99.79486465454102,693.011999130249,825,1
108,control,6.0,14,1,198.9591121673584,789.6900177001953,1249,1
109,control,7.0,14,1,298.72894287109375,693.3858394622803,1152,1
110,control,8.0,14,1,791.546106338501,791.5439605712891,1150,1
111,control,9.0,14,1,493.2522773742676,493.24917793273926,861,1
112,control,10.0,14,1,833.3697319030762,833.3628177642822,1240,1
113,control,11.0,14,1,493.0269718170166,493.02101135253906,1227,1
114,control,12.0,14,1,493.898868560791,493.8969612121582,1383,1
115,control,13.0,14,1,603.5270690917969,603.5251617431641,1261,1
116,control,14.0,14,1,494.61913108825684,494.6129322052002,1356,1
117,control,15.0,14,1,593.6417579650879,593.6388969421387,1019,1
118,control,16.0,20,1,1011.7402076721191,1011.7392539978027,815,0
119,control,16.0,20,1,493.7007427215576,493.69287490844727,940,1
120,control,17.0,20,1,900.1789093017578,900.1748561859131,1254,1
121,control,18.0,14,1,494.49896812438965,494.49801445007324,946,1
122,control,19.0,14,1,482.6688766479492,482.6679229736328,1157,1
123,control,20.0,14,1,594.6609973907471,594.6590900421143,1393,1
124,control,21.0,14,1,690.7510757446289,690.748929977417,1322,1
125,control,22.0,14,1,880.1109790802002,880.1100254058838,1287,1
126,control,23.0,14,1,790.3881072998047,790.3871536254883,1292,1
127,control,24.0,14,1,695.0738430023193,695.0678825378418,1100,1
128,control,25.0,14,1,593.480110168457,593.4751033782959,1493,1
129,control,26.0,14,1,600.2540588378906,600.2490520477295,1381,1
130,control,27.0,26,0,1390.7690048217773,1390.7628059387207,1000,0
131,control,27.0,26,1,879.6920776367188,879.6908855438232,1349,1
132,control,28.0,14,1,691.7929649353027,691.7910575866699,1352,1
133,control,29.0,14,1,583.4619998931885,583.4610462188721,1445,1
134,control,30.0,21,1,1280.6041240692139,1280.6010246276855,1242,1
135,control,5.0,14,1,99.8837947845459,583.4660530090332,1361,1
136,control,6.0,14,1,197.30830192565918,583.380937576294,1017,1
137,control,7.0,14,1,99.20310974121094,630.0821304321289,1256,1
138,control,8.0,14,1,592.7691459655762,592.7650928497314,1463,1
139,control,9.0,14,1,493.4110641479492,493.4079647064209,1188,1
140,control,10.0,14,1,692.5239562988281,692.5208568572998,1243,1
141,control,11.0,14,1,793.5540676116943,793.5519218444824,1325,1
142,control,12.0,14,1,504.95076179504395,504.94384765625,971,1
143,control,13.0,14,1,702.296257019043,702.2931575775146,1056,1
144,control,14.0,14,1,591.7000770568848,591.6931629180908,894,1
145,control,15.0,14,1,491.8508529663086,491.84179306030273,1178,1
146,control,16.0,17,1,494.1842555999756,494.1842555999756,973,1
147,control,17.0,17,1,734.8630428314209,734.8589897155762,932,1
148,control,18.0,14,1,989.0182018280029,989.0151023864746,1435,1
149,control,19.0,14,1,682.12890625,682.1279525756836,1142,1
150,control,20.0,14,1,791.7919158935547,791.7897701263428,1182,1
151,control,21.0,14,1,692.0948028564453,692.0878887176514,1407,1
152,control,22.0,14,0,887.5362873077393,887.5341415405273,908,1
153,control,23.0,14,1,602.7741432189941,602.7650833129883,1407,1
154,control,24.0,14,1,890.0818824768066,890.0768756866455,1030,1
155,control,25.0,14,1,683.1769943237305,683.1760406494141,1463,1
156,control,26.0,14,1,979.7680377960205,979.7670841217041,1414,1
157,control,27.0,24,1,602.7219295501709,602.7200222015381,1239,1
158,control,28.0,14,1,2009.96994972229,2009.9689960479736,1015,1
159,control,29.0,14,1,693.9079761505127,693.9008235931396,1402,1
160,control,30.0,21,1,688.9221668243408,688.9159679412842,1174,1
161,control,5.0,11,1,100.54898262023926,503.5710334777832,1115,1
162,control,6.0,11,1,196.42996788024902,689.3110275268555,1030,1
163,control,7.0,11,1,99.94101524353027,493.851900100708,971,0
164,control,7.0,11,1,99.34401512145996,492.91014671325684,988,1
165,control,8.0,11,1,98.7236499786377,492.88082122802734,1338,1
166,control,9.0,11,1,98.15788269042969,791.8591499328613,963,1
167,control,10.0,11,1,591.4328098297119,591.4278030395508,1084,1
168,control,11.0,11,1,484.760046005249,484.7590923309326,1200,1
169,control,12.0,11,1,625.2729892730713,625.2679824829102,842,1
170,control,13.0,11,1,488.80696296691895,488.80624771118164,1387,1
171,control,14.0,11,1,1276.0367393493652,1276.0357856750488,953,1
172,control,15.0,11,1,495.9380626678467,495.9371089935303,1337,1
173,control,16.0,17,1,879.3201446533203,879.3189525604248,822,1
174,control,17.0,17,1,601.8171310424805,601.8087863922119,810,1
175,control,18.0,11,1,583.1100940704346,583.1079483032227,1085,1
176,control,19.0,11,1,880.4352283477783,880.4342746734619,1315,1
177,control,20.0,11,1,714.8971557617188,714.8962020874023,1243,1
178,control,21.0,11,1,494.6730136871338,494.6718215942383,1215,1
179,control,22.0,17,1,789.3791198730469,789.3781661987305,919,1
180,control,23.0,11,0,988.800048828125,988.7983798980713,1367,1
181,control,24.0,11,1,591.2971496582031,591.2919044494629,1311,1
182,control,25.0,11,1,3705.3401470184326,3705.3370475769043,1221,1
183,control,26.0,11,1,693.2437419891357,693.2411193847656,893,1
184,control,27.0,24,1,593.1918621063232,593.1899547576904,1186,1
185,control,28.0,11,1,1770.6389427185059,1770.6382274627686,1273,1
186,control,29.0,11,1,623.1827735900879,623.1818199157715,941,1
187,control,30.0,20,1,692.7752494812012,692.7690505981445,1289,1
188,control,5.0,11,1,100.36087036132812,627.0480155944824,943,1
189,control,6.0,11,1,98.175048828125,989.6340370178223,836,1
190,control,7.0,11,1,691.619873046875,691.6160583496094,1215,1
191,control,8.0,11,1,689.8458003997803,689.8398399353027,1168,1
192,control,9.0,11,1,100.04568099975586,583.2309722900391,1069,1
193,control,10.0,11,1,682.6169490814209,682.6159954071045,1120,1
194,control,11.0,11,1,583.5120677947998,583.5108757019043,1319,1
195,control,12.0,11,1,704.3881416320801,704.3840885162354,862,1
196,control,13.0,11,1,592.4057960510254,592.3998355865479,1162,1
197,control,14.0,11,1,1120.6603050231934,1120.657205581665,1375,1
198,control,15.0,11,1,100.71921348571777,504.57024574279785,1055,1
199,control,16.0,14,1,582.8020572662354,582.801342010498,1271,1
200,control,17.0,14,1,889.5800113677979,889.5750045776367,1127,1
201,control,18.0,11,1,791.5527820587158,791.5468215942383,1379,1
202,control,19.0,11,0,692.368745803833,692.3637390136719,1326,1
203,control,20.0,11,1,901.0360240936279,901.0288715362549,802,1
204,control,21.0,11,1,792.2089099884033,792.2019958496094,1283,0
205,control,21.0,11,1,791.0819053649902,791.0778522491455,1027,1
206,control,22.0,17,1,599.5593070983887,599.555253982544,810,1
207,control,23.0,14,1,594.0699577331543,594.0642356872559,832,1
208,control,24.0,11,1,594.1810607910156,594.1801071166992,1001,1
209,control,25.0,11,1,1078.4039497375488,1078.4029960632324,833,1
210,control,26.0,11,1,714.8029804229736,714.8017883300781,880,1
211,control,27.0,23,1,605.4060459136963,605.4010391235352,1205,1
212,control,28.0,11,1,1086.8730545043945,1086.8699550628662,927,1
213,control,29.0,11,1,626.7108917236328,626.7046928405762,1082,1
214,control,30.0,20,1,625.8361339569092,625.8320808410645,910,1
215,control,5.0,8,1,101.13000869750977,495.07927894592285,885,1
216,control,6.0,8,1,891.5290832519531,891.5262222290039,1284,1
217,control,7.0,8,1,98.82187843322754,493.70694160461426,826,1
218,control,8.0,8,1,682.5358867645264,682.5337409973145,1346,1
219,control,9.0,8,1,691.3008689880371,691.2930011749268,858,1
220,control,10.0,8,1,694.8151588439941,694.8108673095703,970,1
221,control,11.0,8,1,584.4869613647461,584.4869613647461,1107,1
222,control,12.0,8,1,494.86398696899414,494.86279487609863,956,1
223,control,13.0,8,1,616.0252094268799,616.0242557525635,1247,1
224,control,14.0,8,1,689.8651123046875,689.8608207702637,1492,1
225,control,15.0,8,1,890.4068470001221,890.4008865356445,1497,1
226,control,16.0,14,1,792.121171951294,792.1180725097656,1182,1
227,control,17.0,14,1,486.1130714416504,486.1118793487549,1201,1
228,control,18.0,8,1,691.7760372161865,691.770076751709,850,1
229,control,19.0,14,1,592.5428867340088,592.540979385376,987,1
230,control,20.0,8,1,1518.585205078125,1518.5809135437012,832,1
231,control,21.0,8,1,1020.8561420440674,1020.8530426025391,825,1
232,control,22.0,15,1,683.067798614502,683.0668449401855,970,1
233,control,23.0,14,1,691.5338039398193,691.5318965911865,1295,1
234,control,24.0,8,1,681.8640232086182,681.8628311157227,1459,1
235,control,25.0,8,0,1427.4439811706543,1427.4399280548096,1438,1
236,control,26.0,8,1,792.0310497283936,792.0300960540771,1362,1
237,control,27.0,23,1,901.9570350646973,901.9529819488525,1286,1
238,control,28.0,8,1,1176.826000213623,1176.8252849578857,1143,1
239,control,29.0,8,1,1276.5977382659912,1276.597023010254,944,1
240,control,30.0,18,1,595.41916847229,595.4141616821289,1482,1
241,control,5.0,8,1,97.83411026000977,583.8730335235596,818,1
242,control,6.0,8,1,98.38485717773438,725.1248359680176,1332,1
243,control,7.0,8,1,98.65212440490723,595.9029197692871,1403,1
244,control,8.0,8,1,96.83799743652344,780.8198928833008,949,1
245,control,9.0,8,1,1626.6450881958008,1626.6429424285889,1419,1
246,control,10.0,8,1,1407.2368144989014,1407.236099243164,1018,1
247,control,11.0,8,1,590.4817581176758,590.4808044433594,1039,1
248,control,12.0,8,1,1086.2698554992676,1086.26389503479,1198,1
249,control,13.0,8,1,980.2000522613525,980.1990985870361,1494,1
250,control,14.0,8,1,900.6187915802002,900.6099700927734,928,1
251,control,15.0,8,1,890.2499675750732,890.239953994751,1266,1
252,control,16.0,11,1,594.3992137908936,594.3982601165771,896,1
253,control,17.0,11,1,692.122220993042,692.1212673187256,1447,1
254,control,18.0,8,1,504.16111946105957,504.15802001953125,882,1
255,control,19.0,14,1,582.5872421264648,582.5862884521484,1316,1
256,control,20.0,8,1,891.9391632080078,891.9379711151123,1332,1
257,control,21.0,8,1,2408.9601039886475,2408.9488983154297,1404,1
258,control,22.0,15,1,792.5629615783691,792.5608158111572,1154,1
259,control,23.0,12,1,792.1760082244873,792.1750545501709,1421,1
260,control,24.0,8,0,890.3090953826904,890.3050422668457,1373,1
261,control,25.0,11,1,781.2130451202393,781.2120914459229,1400,1
262,control,26.0,8,0,889.9102210998535,889.9030685424805,905,1
263,control,27.0,21,1,892.4229145050049,892.4221992492676,1439,1
264,control,28.0,8,0,1078.2639980316162,1078.2639980316162,1019,1
265,control,29.0,8,0,2110.4440689086914,2110.4378700256348,1251,1
266,control,30.0,18,1,1077.1832466125488,1077.1820545196533,1344,1
267,control,5.0,5,1,100.09980201721191,781.3808917999268,972,1
268,control,6.0,5,0,198.3640193939209,1093.290090560913,1293,1
269,control,7.0,5,1,98.01912307739258,680.908203125,1173,1
270,control,8.0,5,1,395.6010341644287,1121.330976486206,1423,1
271,control,9.0,5,1,801.163911819458,801.1598587036133,1151,1
272,control,10.0,5,1,591.8447971343994,591.8338298797607,1246,1
273,control,11.0,5,1,1208.9338302612305,1208.9319229125977,1149,1
274,control,12.0,5,1,493.8850402832031,493.8778877258301,1392,1
275,control,13.0,5,1,900.6316661834717,900.6259441375732,903,1
276,control,14.0,5,1,692.8892135620117,692.8701400756836,893,1
277,control,15.0,5,1,691.5161609649658,691.5111541748047,1192,1
278,control,16.0,11,1,918.7297821044922,918.7278747558594,917,1
279,control,17.0,11,1,725.7080078125,725.7039546966553,1163,1
280,control,18.0,5,1,1011.3968849182129,1011.3956928253174,1137,1
281,control,19.0,12,1,681.6833019256592,681.6811561584473,1267,1
282,control,20.0,5,1,881.4971446990967,881.4949989318848,1462,1
283,control,21.0,5,0,988.9378547668457,988.929033279419,1259,1
284,control,22.0,14,1,496.6719150543213,496.66786193847656,843,1
285,control,23.0,12,1,690.9050941467285,690.9000873565674,1473,1
286,control,24.0,11,1,824.7311115264893,824.7301578521729,1458,1
287,control,25.0,11,1,583.184003829956,583.1830501556396,1285,1
288,control,26.0,11,1,582.9911231994629,582.9901695251465,1407,1
289,control,27.0,21,1,898.3688354492188,898.3681201934814,1109,1
290,control,28.0,11,0,1011.0080242156982,1011.0070705413818,929,1
291,control,29.0,11,0,1076.7369270324707,1076.7359733581543,968,1
292,control,30.0,17,1,594.027042388916,594.0260887145996,1339,1
293,control,5.0,5,1,98.9539623260498,592.5817489624023,998,1
294,control,6.0,8,1,98.99711608886719,582.852840423584,1044,1
295,control,7.0,5,1,196.58780097961426,1186.7311000823975,1216,1
296,control,8.0,5,1,101.05395317077637,691.864013671875,894,1
297,control,9.0,5,1,493.6800003051758,493.67809295654297,1291,1
298,control,10.0,5,1,682.6629638671875,682.6608180999756,1437,1
299,control,11.0,5,1,590.7042026519775,590.7001495361328,1459,1
300,control,12.0,5,1,196.20299339294434,888.6587619781494,1200,1
301,control,13.0,5,1,592.9248332977295,592.9200649261475,1096,1
302,control,14.0,5,0,1275.7880687713623,1275.7859230041504,826,1
303,control,15.0,5,1,599.0252494812012,599.0211963653564,1182,1
304,control,16.0,8,1,911.5710258483887,911.5703105926514,1275,1
305,control,17.0,8,1,627.4580955505371,627.4559497833252,1337,1
306,control,18.0,5,1,592.9219722747803,592.9150581359863,1139,1
307,control,19.0,12,1,493.3760166168213,493.36886405944824,1162,1
308,control,20.0,5,1,923.896074295044,923.8932132720947,1037,1
309,control,21.0,8,1,604.0918827056885,604.0875911712646,1203,1
310,control,22.0,14,1,593.4460163116455,593.4410095214844,816,1
311,control,23.0,11,1,682.2519302368164,682.2488307952881,1020,1
312,control,24.0,11,1,595.5491065979004,595.5429077148438,871,1
313,control,25.0,9,1,582.9391479492188,582.9381942749023,1481,1
314,control,26.0,11,1,494.7929382324219,494.79174613952637,1134,1
315,control,27.0,20,1,594.109058380127,594.1071510314941,1431,1
316,control,28.0,14,1,992.8531646728516,992.8469657897949,1060,1
317,control,29.0,14,1,693.8309669494629,693.8281059265137,1199,1
318,control,30.0,17,1,730.4251194000244,730.424165725708,872,1
319,control,5.0,2,0,197.51715660095215,1605.3791046142578,1457,1
320,control,6.0,8,1,582.6659202575684,582.664966583252,1294,1
321,control,7.0,2,1,98.61087799072266,1275.8738994598389,1205,1
322,control,8.0,2,0,2110.745906829834,2110.7399463653564,1147,1
323,control,9.0,2,1,1177.0758628845215,1177.074909210205,905,1
324,control,10.0,2,0,1427.6809692382812,1427.6800155639648,1449,1
325,control,11.0,2,1,98.21176528930664,781.1069488525391,1311,1
326,control,12.0,2,1,682.5530529022217,682.5520992279053,1245,1
327,control,13.0,2,0,779.2608737945557,779.2601585388184,1136,1
328,control,14.0,8,1,595.0767993927002,595.073938369751,1005,1
329,control,15.0,2,0,881.605863571167,881.6049098968506,1149,1
330,control,16.0,8,1,592.0431613922119,592.0372009277344,1287,1
331,control,17.0,8,1,494.2789077758789,494.2736625671387,1326,1
332,control,18.0,2,1,1012.9568576812744,1012.955904006958,1061,1
333,control,19.0,11,1,593.7228202819824,593.721866607666,1143,1
334,control,20.0,2,0,881.7999362945557,881.7987442016602,988,0
335,control,20.0,2,0,881.8609714508057,881.8600177764893,1224,1
336,control,21.0,8,1,692.9972171783447,692.9960250854492,1003,1
337,control,22.0,12,1,703.1810283660889,703.1772136688232,868,0
338,control,22.0,12,1,595.5400466918945,595.5379009246826,824,1
339,control,23.0,11,1,690.9899711608887,690.9809112548828,1143,1
340,control,24.0,9,1,1176.5048503875732,1176.5036582946777,1195,1
341,control,25.0,9,1,494.4429397583008,494.4419860839844,1471,1
342,control,26.0,9,1,792.1562194824219,792.1562194824219,1410,1
343,control,27.0,20,1,589.8349285125732,589.8301601409912,873,1
344,control,28.0,14,0,681.1177730560303,681.117057800293,1338,0
345,control,28.0,14,1,702.9051780700684,702.90207862854,908,0
346,control,28.0,14,1,595.7608222961426,595.7581996917725,800,1
347,control,29.0,14,1,692.1038627624512,692.0990943908691,811,1
348,control,30.0,15,1,594.3820476531982,594.372034072876,1234,1
349,control,5.0,5,1,197.2181797027588,691.3621425628662,1216,1
350,control,6.0,6,1,226.2132167816162,523.082971572876,1390,1
351,control,7.0,2,1,921.0159778594971,921.0109710693359,1106,1
352,control,8.0,5,1,99.39408302307129,584.5990180969238,1067,1
353,control,9.0,2,0,882.2581768035889,882.2572231292725,864,1
354,control,10.0,5,1,1077.967882156372,1077.9671669006348,907,1
355,control,11.0,2,1,690.0269985198975,690.0129318237305,1304,1
356,control,12.0,2,0,702.3510932922363,702.3470401763916,979,1
357,control,13.0,5,1,494.44103240966797,494.43602561950684,865,1
358,control,14.0,8,1,801.455020904541,801.4531135559082,1273,1
359,control,15.0,5,1,1092.4537181854248,1092.4527645111084,871,1
360,control,16.0,5,0,792.1969890594482,792.1960353851318,1474,0
361,control,16.0,5,1,593.2908058166504,593.2908058166504,1389,1
362,control,17.0,5,1,1177.3109436035156,1177.3099899291992,800,1
363,control,18.0,2,0,978.1320095062256,978.1310558319092,1365,1
364,control,19.0,11,1,901.116132736206,901.1130332946777,1096,1
365,control,20.0,5,1,617.2947883605957,617.2940731048584,1159,1
366,control,21.0,6,1,616.5120601654053,616.5108680725098,888,1
367,control,22.0,12,1,594.3772792816162,594.3763256072998,1173,1
368,control,23.0,9,1,495.81003189086914,495.81003189086914,848,1
369,control,24.0,9,1,722.4910259246826,722.4891185760498,1370,1
370,control,25.0,8,1,681.9052696228027,681.9043159484863,1276,1
371,control,26.0,9,1,484.09414291381836,484.09318923950195,1039,1
372,control,27.0,18,0,890.3861045837402,890.3810977935791,1378,1
373,control,28.0,12,1,626.4901161193848,626.4891624450684,839,1
374,control,29.0,12,1,495.18418312072754,495.18299102783203,1306,1
375,control,30.0,15,1,593.5108661651611,593.5077667236328,1098,1
376,control,5.0,5,1,782.2160720825195,782.2151184082031,1093,1
377,control,6.0,6,1,99.82895851135254,583.122968673706,1284,1
378,control,7.0,1,1,1525.4080295562744,1525.4042148590088,1452,1
379,control,8.0,5,1,592.106819152832,592.0970439910889,912,1
380,control,9.0,5,1,689.8388862609863,689.8338794708252,1091,1
381,control,10.0,5,1,988.8298511505127,988.8267517089844,872,0
382,control,10.0,5,1,594.383955001831,594.3789482116699,1392,1
383,control,11.0,1,0,1473.8891124725342,1473.8881587982178,930,1
384,control,12.0,5,1,793.8268184661865,793.8246726989746,882,1
385,control,13.0,5,0,823.8239288330078,823.8210678100586,943,1
386,control,14.0,6,0,1978.804111480713,1978.8010120391846,800,1
387,control,15.0,5,1,880.3761005401611,880.3749084472656,892,1
388,control,16.0,5,1,495.95117568969727,495.941162109375,985,1
389,control,17.0,5,1,199.0818977355957,1220.1578617095947,1326,1
390,control,18.0,5,1,890.0940418243408,890.0909423828125,1398,1
391,control,19.0,9,1,493.2830333709717,493.28088760375977,1128,1
392,control,20.0,5,0,690.7997131347656,690.7927989959717,1129,1
393,control,21.0,6,1,495.06592750549316,495.06497383117676,1010,1
394,control,22.0,11,0,593.6739444732666,593.6698913574219,1356,1
395,control,23.0,9,1,624.2392063140869,624.2341995239258,863,1
396,control,24.0,8,1,426.23400688171387,426.23329162597656,1008,1
397,control,25.0,8,0,923.6419200897217,923.6388206481934,1114,1
398,control,26.0,8,0,3497.6119995117188,3497.6069927215576,1479,1
399,control,27.0,20,1,530.7238101959229,530.72190284729,912,1
400,control,28.0,12,1,592.4558639526367,592.4479961395264,1148,1
401,control,29.0,12,0,1019.2742347717285,1019.2670822143555,1058,1
402,control,30.0,14,0,2115.5099868774414,2115.506887435913,1036,1
1,quadbright,5.0,20,1,99.23720359802246,2505.2881240844727,1066,1
2,quadbright,6.0,20,1,102.43821144104004,980.7932376861572,1436,1
3,quadbright,7.0,20,1,99.6391773223877,890.9780979156494,1231,1
4,quadbright,8.0,20,1,198.3661651611328,700.9482383728027,987,1
5,quadbright,9.0,20,1,691.6308403015137,691.62917137146,1208,1
6,quadbright,10.0,20,1,900.9087085723877,900.9048938751221,1460,1
7,quadbright,11.0,20,1,889.2099857330322,889.2080783843994,1003,1
8,quadbright,12.0,20,1,989.2899990081787,989.2880916595459,1098,1
9,quadbright,13.0,20,1,98.42681884765625,890.1429176330566,876,1
10,quadbright,14.0,20,1,780.0948619842529,780.092716217041,1395,1
11,quadbright,15.0,20,1,888.4689807891846,888.4658813476562,1466,1
12,quadbright,16.0,20,0,879.7330856323242,879.7321319580078,1336,1
13,quadbright,17.0,20,1,812.3481273651123,812.3469352722168,1127,1
14,quadbright,18.0,20,1,594.182014465332,594.1810607910156,1434,1
15,quadbright,19.0,20,1,791.4361953735352,791.4350032806396,1156,1
16,quadbright,20.0,20,1,978.7790775299072,978.7781238555908,1237,1
17,quadbright,21.0,20,1,890.5429840087891,890.5398845672607,1500,1
18,quadbright,22.0,20,1,1021.1820602416992,1021.1780071258545,1310,1
19,quadbright,23.0,20,1,880.864143371582,880.864143371582,1029,1
20,quadbright,24.0,20,1,888.9889717102051,888.9882564544678,902,1
21,quadbright,25.0,20,1,692.8548812866211,692.8541660308838,1277,1
22,quadbright,26.0,20,1,690.8621788024902,690.8581256866455,839,1
23,quadbright,27.0,20,1,682.9061508178711,682.9049587249756,1134,1
24,quadbright,28.0,20,1,814.4493103027344,814.4481182098389,1051,1
25,quadbright,29.0,20,1,1117.8317070007324,1117.8288459777832,881,1
26,quadbright,30.0,20,1,923.5799312591553,923.579216003418,1343,1
27,quadbright,5.0,20,1,198.17805290222168,879.8253536224365,1294,1
28,quadbright,6.0,20,1,99.00426864624023,691.8163299560547,1165,1
29,quadbright,7.0,20,1,593.0449962615967,593.0392742156982,866,1
30,quadbright,8.0,20,1,604.5031547546387,604.4940948486328,1130,1
31,quadbright,9.0,20,1,97.44882583618164,788.6838912963867,1200,1
32,quadbright,10.0,20,1,1406.9628715515137,1406.9619178771973,914,1
33,quadbright,11.0,20,1,889.9006843566895,889.8980617523193,1102,1
34,quadbright,12.0,20,1,889.4820213317871,889.4741535186768,1160,1
35,quadbright,13.0,20,1,781.3160419464111,781.3150882720947,1140,1
36,quadbright,14.0,20,1,682.3301315307617,682.3291778564453,1037,1
37,quadbright,15.0,20,1,901.3721942901611,901.3700485229492,1252,1
38,quadbright,16.0,23,1,987.6298904418945,987.623929977417,886,1
39,quadbright,17.0,20,1,484.5612049102783,484.5602512359619,1240,1
40,quadbright,18.0,20,1,879.9359798431396,879.9350261688232,1344,1
41,quadbright,19.0,20,1,624.3362426757812,624.3293285369873,1450,1
42,quadbright,20.0,20,1,682.8498840332031,682.8489303588867,1395,1
43,quadbright,21.0,20,1,593.9681529998779,593.9650535583496,882,1
44,quadbright,22.0,20,0,1373.4681606292725,1373.467206954956,973,1
45,quadbright,23.0,20,1,682.7170848846436,682.715892791748,1361,1
46,quadbright,24.0,20,1,812.5321865081787,812.5312328338623,1190,1
47,quadbright,25.0,20,1,1131.2601566314697,1131.2580108642578,800,1
48,quadbright,26.0,20,1,691.2968158721924,691.2927627563477,995,1
49,quadbright,27.0,20,1,591.9528007507324,591.951847076416,1208,1
50,quadbright,28.0,20,1,783.5550308227539,783.5540771484375,830,1
51,quadbright,29.0,20,1,589.7860527038574,589.7800922393799,931,1
52,quadbright,30.0,20,1,882.0071220397949,882.0059299468994,819,1
53,quadbright,5.0,17,1,98.82211685180664,591.865062713623,1148,1
54,quadbright,6.0,17,1,99.41387176513672,781.4619541168213,1399,1
55,quadbright,7.0,17,1,96.83394432067871,889.3611431121826,1332,1
56,quadbright,8.0,17,1,823.822021484375,823.8201141357422,1475,1
57,quadbright,9.0,17,1,890.631914138794,890.625,1278,1
58,quadbright,10.0,17,1,582.7741622924805,582.7732086181641,1072,1
59,quadbright,11.0,17,1,725.395917892456,725.3937721252441,1258,1
60,quadbright,12.0,17,1,1374.1059303283691,1374.1052150726318,1493,1
61,quadbright,13.0,17,1,784.8031520843506,784.8019599914551,1010,1
62,quadbright,14.0,17,1,591.9029712677002,591.9008255004883,1434,1
63,quadbright,15.0,17,1,780.9770107269287,780.9760570526123,1151,1
64,quadbright,16.0,23,1,681.6689968109131,681.6680431365967,1128,1
65,quadbright,17.0,17,1,592.2996997833252,592.2958850860596,839,1
66,quadbright,18.0,17,1,722.5909233093262,722.5868701934814,1362,1
67,quadbright,19.0,17,1,722.7640151977539,722.7609157562256,1465,1
68,quadbright,20.0,17,1,603.7249565124512,603.71994972229,1295,1
69,quadbright,21.0,17,1,703.0909061431885,703.0880451202393,1014,1
70,quadbright,22.0,23,1,704.2081356048584,704.2050361633301,1180,1
71,quadbright,23.0,17,1,493.7610626220703,493.7558174133301,977,1
72,quadbright,24.0,17,1,890.3851509094238,890.383243560791,991,1
73,quadbright,25.0,17,1,681.431770324707,681.431770324707,1143,1
74,quadbright,26.0,17,1,495.06402015686035,495.06306648254395,822,1
75,quadbright,27.0,17,1,680.0110340118408,680.0110340118408,1224,1
76,quadbright,28.0,17,0,702.5268077850342,702.5227546691895,822,1
77,quadbright,29.0,17,1,1803.5728931427002,1803.5719394683838,853,1
78,quadbright,30.0,17,1,600.3251075744629,600.3232002258301,1346,1
79,quadbright,5.0,17,1,98.77991676330566,614.8860454559326,1386,1
80,quadbright,6.0,17,1,199.0509033203125,696.1257457733154,900,1
81,quadbright,7.0,17,1,98.92511367797852,593.9619541168213,1097,1
82,quadbright,8.0,17,1,100.52490234375,485.2011203765869,1444,1
83,quadbright,9.0,17,1,900.9578227996826,900.9549617767334,883,1
84,quadbright,10.0,17,1,525.8259773254395,525.8228778839111,901,1
85,quadbright,11.0,17,1,815.5288696289062,815.5279159545898,1268,1
86,quadbright,12.0,17,1,791.3358211517334,791.3310527801514,1377,1
87,quadbright,13.0,17,1,812.9069805145264,812.9069805145264,1284,1
88,quadbright,14.0,17,1,592.4344062805176,592.4301147460938,936,1
89,quadbright,15.0,17,1,791.7060852050781,791.7020320892334,1222,1
90,quadbright,16.0,20,1,725.5208492279053,725.5127429962158,1112,1
91,quadbright,17.0,17,0,1976.032018661499,1976.0291576385498,1297,1
92,quadbright,18.0,17,1,626.4069080352783,626.4028549194336,1041,1
93,quadbright,19.0,17,1,734.1539859771729,734.15207862854,882,1
94,quadbright,20.0,17,1,493.53599548339844,493.53504180908203,1062,1
95,quadbright,21.0,17,1,603.9090156555176,603.9040088653564,1296,1
96,quadbright,22.0,23,0,1780.3850173950195,1780.379056930542,1334,1
97,quadbright,23.0,17,1,1197.2191333770752,1197.2169876098633,1438,1
98,quadbright,24.0,17,1,681.359052658081,681.359052658081,1177,1
99,quadbright,25.0,17,0,1374.8142719268799,1374.8133182525635,1230,1
100,quadbright,26.0,17,1,881.0760974884033,881.0739517211914,806,1
101,quadbright,27.0,17,1,692.5501823425293,692.5480365753174,1023,1
102,quadbright,28.0,20,1,595.134973526001,595.1027870178223,1064,1
103,quadbright,29.0,17,1,716.7859077453613,716.7849540710449,1448,1
104,quadbright,30.0,17,1,1912.696123123169,1912.6911163330078,1475,0
105,quadbright,30.0,17,1,594.1689014434814,594.167947769165,1097,1
106,quadbright,5.0,14,1,98.82712364196777,693.5131549835205,1153,1
107,quadbright,6.0,14,1,99.99990463256836,692.1160221099854,881,1
108,quadbright,7.0,14,1,294.8007583618164,591.4947986602783,920,1
109,quadbright,8.0,14,0,494.4758415222168,494.4748878479004,1234,1
110,quadbright,9.0,14,1,824.5601654052734,824.5513439178467,1194,1
111,quadbright,10.0,14,1,98.54292869567871,494.3230152130127,830,1
112,quadbright,11.0,14,1,495.00584602355957,495.00584602355957,897,1
113,quadbright,12.0,14,1,493.3791160583496,493.37291717529297,1131,1
114,quadbright,13.0,14,1,591.3171768188477,591.3090705871582,974,1
115,quadbright,14.0,14,0,1484.7311973571777,1484.7240447998047,827,1
116,quadbright,15.0,14,1,592.8759574890137,592.8702354431152,1049,1
117,quadbright,16.0,20,1,691.648006439209,691.6460990905762,1325,1
118,quadbright,17.0,20,1,792.0520305633545,792.0510768890381,1056,1
119,quadbright,18.0,14,0,1494.8549270629883,1494.8489665985107,1106,1
120,quadbright,19.0,14,1,593.6548709869385,593.6460494995117,944,1
121,quadbright,20.0,14,1,801.9976615905762,801.995038986206,971,1
122,quadbright,21.0,14,1,1011.6729736328125,1011.6720199584961,887,1
123,quadbright,22.0,24,1,494.3821430206299,494.37522888183594,942,1
124,quadbright,23.0,14,1,594.6083068847656,594.6030616760254,1481,1
125,quadbright,24.0,14,1,890.6083106994629,890.5973434448242,1359,1
126,quadbright,25.0,20,1,701.1938095092773,701.190710067749,1050,1
127,quadbright,26.0,14,1,594.5699214935303,594.5620536804199,1419,1
128,quadbright,27.0,14,1,727.3461818695068,727.3430824279785,1178,1
129,quadbright,28.0,20,1,1474.1849899291992,1474.1840362548828,1170,1
130,quadbright,29.0,14,1,987.083911895752,987.0798587799072,1163,1
131,quadbright,30.0,14,1,1177.4096488952637,1177.4086952209473,971,1
132,quadbright,5.0,14,1,100.00991821289062,594.3698883056641,962,1
133,quadbright,6.0,14,1,97.96810150146484,591.7150974273682,1290,1
134,quadbright,7.0,14,1,101.12810134887695,595.6189632415771,962,1
135,quadbright,8.0,17,1,485.9790802001953,485.9781265258789,1331,1
136,quadbright,9.0,14,1,725.5301475524902,725.5251407623291,1466,1
137,quadbright,10.0,14,1,516.0751342773438,516.0729885101318,1476,1
138,quadbright,11.0,14,1,792.792797088623,792.7827835083008,1488,1
139,quadbright,12.0,14,1,780.6737422943115,780.6730270385742,1156,1
140,quadbright,13.0,14,1,100.1589298248291,682.8670501708984,807,1
141,quadbright,14.0,17,1,691.6241645812988,691.6210651397705,1308,1
142,quadbright,15.0,14,1,781.7962169647217,781.7952632904053,912,1
143,quadbright,16.0,17,1,782.7551364898682,782.7541828155518,1234,1
144,quadbright,17.0,20,1,494.1120147705078,494.1098690032959,919,1
145,quadbright,18.0,17,1,900.3088474273682,900.3069400787354,1151,1
146,quadbright,19.0,14,1,593.7509536743164,593.75,808,1
147,quadbright,20.0,14,1,593.6369895935059,593.6360359191895,868,1
148,quadbright,21.0,14,1,889.8117542266846,889.8098468780518,904,1
149,quadbright,22.0,24,1,724.4970798492432,724.4889736175537,836,1
150,quadbright,23.0,14,0,681.0681819915771,681.0669898986816,825,1
151,quadbright,24.0,14,1,781.3739776611328,781.3718318939209,1248,1
152,quadbright,25.0,20,1,485.7747554779053,485.77380180358887,1046,1
153,quadbright,26.0,14,1,691.129207611084,691.1239624023438,1063,1
154,quadbright,27.0,14,1,682.3890209197998,682.3880672454834,1282,1
155,quadbright,28.0,18,1,726.2470722198486,726.2411117553711,955,1
156,quadbright,29.0,14,1,1374.5858669281006,1374.5849132537842,1225,1
157,quadbright,30.0,14,1,593.937873840332,593.93310546875,1264,1
158,quadbright,5.0,11,1,99.04885292053223,900.9227752685547,951,1
159,quadbright,6.0,11,1,99.88784790039062,595.5519676208496,1027,1
160,quadbright,7.0,11,1,99.5328426361084,879.7767162322998,1019,1
161,quadbright,8.0,17,1,888.5869979858398,888.5800838470459,1209,1
162,quadbright,9.0,11,1,691.9419765472412,691.9369697570801,1042,1
163,quadbright,10.0,11,0,98.78396987915039,1526.280164718628,1143,1
164,quadbright,11.0,11,1,900.3303050994873,900.3262519836426,1399,1
165,quadbright,12.0,11,1,682.6708316802979,682.6698780059814,994,1
166,quadbright,13.0,11,1,1408.348798751831,1408.3466529846191,1045,1
167,quadbright,14.0,17,0,1525.9778499603271,1525.9759426116943,1286,1
168,quadbright,15.0,11,1,2309.3299865722656,2309.3247413635254,1420,1
169,quadbright,16.0,17,1,889.6560668945312,889.6498680114746,1164,1
170,quadbright,17.0,18,0,1474.3468761444092,1474.3459224700928,1213,1
171,quadbright,18.0,17,1,592.2951698303223,592.2889709472656,1175,1
172,quadbright,19.0,11,1,602.8289794921875,602.8261184692383,1310,1
173,quadbright,20.0,11,1,691.3719177246094,691.370964050293,1449,1
174,quadbright,21.0,11,1,689.5837783813477,689.5818710327148,1200,0
175,quadbright,21.0,11,1,692.3937797546387,692.3878192901611,891,1
176,quadbright,22.0,23,1,814.1958713531494,814.194917678833,1476,1
177,quadbright,23.0,17,1,734.915018081665,734.9131107330322,814,1
178,quadbright,24.0,11,1,1476.5937328338623,1476.592779159546,1377,1
179,quadbright,25.0,18,0,1088.3729457855225,1088.3681774139404,1004,1
180,quadbright,26.0,11,1,1122.481107711792,1122.47896194458,1340,1
181,quadbright,27.0,11,0,1218.1971073150635,1218.1940078735352,1180,1
182,quadbright,28.0,18,1,883.6181163787842,883.6171627044678,1191,1
183,quadbright,29.0,11,0,1111.0358238220215,1111.0351085662842,882,1
184,quadbright,30.0,11,1,990.1750087738037,990.1719093322754,1413,1
185,quadbright,5.0,11,1,98.5269546508789,589.7369384765625,1012,1
186,quadbright,6.0,11,1,525.9981155395508,525.9919166564941,881,1
187,quadbright,7.0,11,1,99.6549129486084,592.4928188323975,975,1
188,quadbright,8.0,15,1,198.41599464416504,592.512845993042,1167,1
189,quadbright,9.0,11,1,525.8712768554688,525.8691310882568,1341,1
190,quadbright,10.0,14,1,457.69619941711426,457.69405364990234,845,1
191,quadbright,11.0,11,1,582.9300880432129,582.9288959503174,827,1
192,quadbright,12.0,11,1,682.4078559875488,682.405948638916,823,1
193,quadbright,13.0,11,1,495.41616439819336,495.41616439819336,992,1
194,quadbright,14.0,18,1,505.1159858703613,505.112886428833,1409,1
195,quadbright,15.0,11,1,1276.932954788208,1276.930809020996,1218,1
196,quadbright,16.0,14,1,2606.717348098755,2606.715202331543,1393,0
197,quadbright,16.0,14,1,485.28409004211426,485.28313636779785,880,1
198,quadbright,17.0,20,1,626.4021396636963,626.4009475708008,1175,1
199,quadbright,18.0,15,1,482.39898681640625,482.39707946777344,1190,1
200,quadbright,19.0,11,1,782.4938297271729,782.4928760528564,989,1
201,quadbright,20.0,11,1,1077.5160789489746,1077.514886856079,1464,1
202,quadbright,21.0,11,1,691.2291049957275,691.2271976470947,841,1
203,quadbright,22.0,23,0,1120.898962020874,1120.8908557891846,1412,1
204,quadbright,23.0,17,1,724.574089050293,724.5662212371826,1411,1
205,quadbright,24.0,11,0,1021.8889713287354,1021.8832492828369,1073,1
206,quadbright,25.0,20,1,494.6119785308838,494.60911750793457,1295,1
207,quadbright,26.0,11,0,1385.282039642334,1385.2779865264893,1446,1
208,quadbright,27.0,14,0,1011.0530853271484,1011.052131652832,1220,1
209,quadbright,28.0,17,1,594.4530963897705,594.4521427154541,1260,1
210,quadbright,29.0,14,1,977.3931503295898,977.3921966552734,1111,1
211,quadbright,30.0,11,0,1375.5278587341309,1375.5278587341309,1113,1
212,quadbright,5.0,8,1,98.79922866821289,593.4619903564453,1363,1
213,quadbright,6.0,8,1,98.25491905212402,484.1618537902832,1461,1
214,quadbright,7.0,8,1,99.25603866577148,495.0399398803711,1479,1
215,quadbright,8.0,15,1,99.55501556396484,495.17297744750977,1242,1
216,quadbright,9.0,8,1,591.3898944854736,591.3820266723633,1130,1
217,quadbright,10.0,14,1,99.8678207397461,593.735933303833,1476,1
218,quadbright,11.0,8,1,1084.8522186279297,1084.8422050476074,980,1
219,quadbright,12.0,8,1,779.1390419006348,779.1380882263184,887,1
220,quadbright,13.0,8,1,690.7901763916016,690.7849311828613,1222,1
221,quadbright,14.0,18,1,623.7030029296875,623.6958503723145,1494,1
222,quadbright,15.0,8,1,890.3729915618896,890.3710842132568,1014,1
223,quadbright,16.0,14,1,584.4316482543945,584.4306945800781,1455,1
224,quadbright,17.0,20,1,790.795087814331,790.7919883728027,1130,1
225,quadbright,18.0,15,1,492.5580024719238,492.5520420074463,1295,1
226,quadbright,19.0,8,1,1407.9761505126953,1407.9749584197998,1350,1
227,quadbright,20.0,8,1,999.0677833557129,999.0639686584473,1235,1
228,quadbright,21.0,8,1,1417.7641868591309,1417.7589416503906,1379,1
229,quadbright,22.0,24,1,892.1468257904053,892.1458721160889,1363,1
230,quadbright,23.0,15,1,635.8828544616699,635.8788013458252,1443,1
231,quadbright,24.0,14,0,1208.528995513916,1208.528995513916,1160,1
232,quadbright,25.0,20,1,494.28820610046387,494.28725242614746,1075,1
233,quadbright,26.0,14,1,691.9639110565186,691.9629573822021,1350,1
234,quadbright,27.0,17,1,1176.2268543243408,1176.2261390686035,1190,1
235,quadbright,28.0,17,1,1143.2080268859863,1143.2061195373535,1362,0
236,quadbright,28.0,17,1,682.2068691253662,682.2059154510498,1462,1
237,quadbright,29.0,14,1,793.1909561157227,793.1897640228271,1237,1
238,quadbright,30.0,14,1,1231.3549518585205,1231.348991394043,1201,1
239,quadbright,5.0,8,1,206.78997039794922,1029.7737121582031,1207,1
240,quadbright,6.0,8,1,99.42078590393066,615.5316829681396,1257,1
241,quadbright,7.0,8,1,231.04500770568848,714.946985244751,888,1
242,quadbright,8.0,14,1,94.54631805419922,581.1939239501953,1009,1
243,quadbright,9.0,8,1,691.0829544067383,691.07985496521,880,1
244,quadbright,10.0,12,1,791.1417484283447,791.130781173706,1394,1
245,quadbright,11.0,8,0,1771.306037902832,1771.3048458099365,1261,1
246,quadbright,12.0,8,1,723.3619689941406,723.3560085296631,886,1
247,quadbright,13.0,8,1,890.4938697814941,890.4900550842285,1252,1
248,quadbright,14.0,17,1,780.5860042572021,780.5848121643066,1266,1
249,quadbright,15.0,8,0,1297.806739807129,1297.8029251098633,1360,1
250,quadbright,16.0,11,0,912.6250743865967,912.6231670379639,1316,0
251,quadbright,16.0,11,1,692.8398609161377,692.8350925445557,924,1
252,quadbright,17.0,19,1,629.1069984436035,629.1048526763916,1267,1
253,quadbright,18.0,14,0,812.7720355987549,812.7710819244385,887,1
254,quadbright,19.0,8,1,990.5328750610352,990.5319213867188,1364,1
255,quadbright,20.0,8,0,897.5839614868164,897.5801467895508,1311,1
256,quadbright,21.0,8,1,1210.0276947021484,1210.0269794464111,943,1
257,quadbright,22.0,24,1,1089.9510383605957,1089.9500846862793,894,1
258,quadbright,23.0,15,1,888.2670402526855,888.2620334625244,1067,1
259,quadbright,24.0,17,1,689.6870136260986,689.683198928833,878,1
260,quadbright,25.0,19,1,1527.3728370666504,1527.3680686950684,807,1
261,quadbright,26.0,14,0,2267.230987548828,2267.2297954559326,971,1
262,quadbright,27.0,17,1,789.557933807373,789.5498275756836,880,1
263,quadbright,28.0,15,1,616.8198585510254,616.818904876709,1347,1
264,quadbright,29.0,12,0,1011.2361907958984,1011.235237121582,900,1
265,quadbright,30.0,14,1,1177.1221160888672,1177.1211624145508,1087,1
266,quadbright,5.0,5,1,197.06225395202637,690.866231918335,1345,1
267,quadbright,6.0,5,1,101.0291576385498,593.0430889129639,1061,1
268,quadbright,7.0,5,0,97.22590446472168,1714.756965637207,997,1
269,quadbright,8.0,14,1,87.81695365905762,879.9891471862793,1320,1
270,quadbright,9.0,5,1,989.3219470977783,989.3200397491455,1011,1
271,quadbright,10.0,12,1,593.451976776123,593.4500694274902,1129,1
272,quadbright,11.0,11,1,493.4849739074707,493.47996711730957,1071,1
273,quadbright,12.0,5,0,922.8489398956299,922.8401184082031,984,1
274,quadbright,13.0,5,1,822.767972946167,822.7620124816895,1483,1
275,quadbright,14.0,17,1,592.461109161377,592.4580097198486,1069,1
276,quadbright,15.0,11,1,684.0629577636719,684.0617656707764,1256,1
277,quadbright,16.0,11,1,590.1107788085938,590.1098251342773,1000,1
278,quadbright,17.0,19,1,592.5126075744629,592.5078392028809,1460,1
279,quadbright,18.0,15,1,494.8768615722656,494.8768615722656,1076,1
280,quadbright,19.0,5,0,989.0620708465576,989.0601634979248,996,1
281,quadbright,20.0,11,1,693.0849552154541,693.0837631225586,1162,1
282,quadbright,21.0,5,1,1119.2021369934082,1119.1980838775635,998,1
283,quadbright,22.0,23,1,484.4081401824951,484.4071865081787,1488,1
284,quadbright,23.0,14,1,500.53906440734863,500.5338191986084,809,1
285,quadbright,24.0,17,1,594.0401554107666,594.0380096435547,1406,1
286,quadbright,25.0,19,1,494.8737621307373,494.8718547821045,1105,1
287,quadbright,26.0,15,0,781.2197208404541,781.2178134918213,960,1
288,quadbright,27.0,15,0,1077.4590969085693,1077.458143234253,848,1
289,quadbright,28.0,15,1,724.884033203125,724.8799800872803,1347,1
290,quadbright,29.0,14,1,881.6580772399902,881.6571235656738,1249,1
291,quadbright,30.0,12,0,1429.037094116211,1429.030179977417,861,1
292,quadbright,5.0,5,1,131.85906410217285,1209.719181060791,925,1
293,quadbright,6.0,5,1,98.12498092651367,615.0600910186768,1268,1
294,quadbright,7.0,8,1,703.2871246337891,703.2849788665771,935,1
295,quadbright,8.0,12,1,99.08199310302734,998.9569187164307,913,1
296,quadbright,9.0,5,1,894.1941261291504,894.1922187805176,1327,1
297,quadbright,10.0,11,1,100.36110877990723,592.6511287689209,1287,0
298,quadbright,10.0,11,1,592.4787521362305,592.4718379974365,925,1
299,quadbright,11.0,11,0,1210.1969718933105,1210.1960182189941,1198,1
300,quadbright,12.0,8,1,593.6400890350342,593.6319828033447,834,1
301,quadbright,13.0,5,1,1517.6739692687988,1517.6668167114258,1366,1
302,quadbright,14.0,16,1,722.5968837738037,722.5947380065918,1234,1
303,quadbright,15.0,11,1,682.2688579559326,682.2679042816162,1411,1
304,quadbright,16.0,8,0,2167.062997817993,2167.0620441436768,1062,1
305,quadbright,17.0,18,1,603.607177734375,603.6050319671631,835,1
306,quadbright,18.0,15,1,500.1089572906494,500.1058578491211,937,1
307,quadbright,19.0,8,0,1176.4140129089355,1176.41282081604,1388,1
308,quadbright,20.0,11,1,878.4668445587158,878.4658908843994,1263,1
309,quadbright,21.0,5,1,890.4359340667725,890.4321193695068,1294,1
310,quadbright,22.0,23,1,593.9340591430664,593.9340591430664,1404,0
311,quadbright,22.0,23,1,595.1230525970459,595.1168537139893,1195,1
312,quadbright,23.0,14,0,979.1009426116943,979.0997505187988,963,1
313,quadbright,24.0,15,1,526.8559455871582,526.8549919128418,1042,1
314,quadbright,25.0,18,1,484.08985137939453,484.0888977050781,1492,1
315,quadbright,26.0,17,1,526.0961055755615,526.0941982269287,1198,1
316,quadbright,27.0,17,1,823.7659931182861,823.7628936767578,815,1
317,quadbright,28.0,14,1,603.1889915466309,603.187084197998,1480,1
318,quadbright,29.0,14,1,881.9770812988281,881.9761276245117,1421,1
319,quadbright,30.0,14,1,823.7991333007812,823.7948417663574,1199,1
320,quadbright,5.0,2,0,895.2109813690186,895.2090740203857,981,1
321,quadbright,6.0,2,0,97.7940559387207,781.4769744873047,1150,1
322,quadbright,7.0,8,1,708.7311744689941,708.7280750274658,891,1
323,quadbright,8.0,12,1,604.0480136871338,604.0439605712891,1416,0
324,quadbright,8.0,12,1,296.1301803588867,790.5311584472656,948,1
325,quadbright,9.0,2,0,1033.3130359649658,1033.308982849121,924,1
326,quadbright,10.0,11,1,526.9849300384521,526.9780158996582,1381,1
327,quadbright,11.0,12,1,722.4819660186768,722.4769592285156,1048,1
328,quadbright,12.0,8,1,614.8619651794434,614.8600578308105,1343,1
329,quadbright,13.0,2,1,395.66993713378906,1297.6391315460205,958,1
330,quadbright,14.0,16,1,95.99804878234863,879.3838024139404,1068,0
331,quadbright,14.0,16,1,514.4670009613037,514.4660472869873,1238,1
332,quadbright,15.0,9,1,716.094970703125,716.0918712615967,1096,1
333,quadbright,16.0,11,1,789.7310256958008,789.726972579956,1451,1
334,quadbright,17.0,18,0,1175.8618354797363,1175.8599281311035,1195,1
335,quadbright,18.0,14,1,494.7772026062012,494.77100372314453,1456,1
336,quadbright,19.0,11,1,526.0190963745117,526.0159969329834,1382,1
337,quadbright,20.0,9,1,1284.6710681915283,1284.6648693084717,1491,1
338,quadbright,21.0,2,0,888.9999389648438,888.9989852905273,1286,1
339,quadbright,22.0,22,1,690.3140544891357,690.3049945831299,825,1
340,quadbright,23.0,15,1,728.9252281188965,728.9230823516846,1210,1
341,quadbright,24.0,15,1,692.3298835754395,692.328929901123,1387,1
342,quadbright,25.0,18,1,595.552921295166,595.5491065979004,1002,1
343,quadbright,26.0,17,0,495.4068660736084,495.405912399292,967,1
344,quadbright,27.0,17,1,659.3680381774902,659.3630313873291,1069,1
345,quadbright,28.0,14,1,1276.4499187469482,1276.4480113983154,1011,1
346,quadbright,29.0,13,0,1278.898000717163,1278.8958549499512,1014,1
347,quadbright,30.0,14,1,1022.8271484375,1022.8240489959717,1478,1
348,quadbright,5.0,5,1,99.94125366210938,592.2391414642334,1407,1
349,quadbright,6.0,5,1,98.81806373596191,493.8209056854248,1391,1
350,quadbright,7.0,6,1,99.58982467651367,592.6327705383301,935,1
351,quadbright,8.0,11,1,96.01378440856934,493.1766986846924,997,1
352,quadbright,9.0,5,1,593.2128429412842,593.2090282440186,826,1
353,quadbright,10.0,9,1,98.22487831115723,492.0687675476074,935,1
354,quadbright,11.0,12,1,597.1171855926514,597.1152782440186,1214,1
355,quadbright,12.0,6,1,693.964958190918,693.9640045166016,1312,1
356,quadbright,13.0,2,0,3001.1799335479736,3001.1751651763916,953,1
357,quadbright,14.0,15,1,103.14321517944336,602.3581027984619,1336,1
358,quadbright,15.0,9,1,593.9450263977051,593.9440727233887,806,1
359,quadbright,16.0,11,1,692.7728652954102,692.7719116210938,1156,1
360,quadbright,17.0,19,1,488.13700675964355,488.13581466674805,1049,1
361,quadbright,18.0,14,1,625.9140968322754,625.9119510650635,1418,1
362,quadbright,19.0,11,1,494.8689937591553,494.86303329467773,1257,1
363,quadbright,20.0,9,1,890.44189453125,890.4368877410889,910,1
364,quadbright,21.0,5,1,1572.9708671569824,1572.969913482666,886,1
365,quadbright,22.0,22,1,583.2200050354004,583.219051361084,1490,1
366,quadbright,23.0,15,1,592.2391414642334,592.2350883483887,1342,1
367,quadbright,24.0,14,1,879.6298503875732,879.6238899230957,1367,1
368,quadbright,25.0,17,1,582.7388763427734,582.737922668457,1149,1
369,quadbright,26.0,18,1,494.83180046081543,494.830846786499,1428,1
370,quadbright,27.0,16,1,527.108907699585,527.1077156066895,1400,1
371,quadbright,28.0,12,1,619.3342208862305,619.3332672119141,1253,1
372,quadbright,29.0,14,1,517.7218914031982,517.7209377288818,1206,1
373,quadbright,30.0,13,0,889.9719715118408,889.9669647216797,1101,1
374,quadbright,5.0,5,1,199.66816902160645,692.5380229949951,1279,1
375,quadbright,6.0,5,1,1310.8861446380615,1310.8851909637451,1446,1
376,quadbright,7.0,6,1,98.81401062011719,495.0530529022217,875,1
377,quadbright,8.0,11,1,99.01094436645508,592.0398235321045,1047,1
378,quadbright,9.0,5,1,198.71187210083008,979.4938564300537,1096,1
379,quadbright,10.0,9,1,98.03009033203125,789.121150970459,963,0
380,quadbright,10.0,9,1,98.40989112854004,791.6579246520996,1046,1
381,quadbright,11.0,11,1,518.9518928527832,518.9518928527832,966,1
382,quadbright,12.0,6,1,1209.6009254455566,1209.5987796783447,1167,1
383,quadbright,13.0,5,1,1089.5111560821533,1089.510202407837,1107,1
384,quadbright,14.0,15,1,495.15485763549805,495.15223503112793,1153,1
385,quadbright,15.0,8,1,714.191198348999,714.1900062561035,1248,0
386,quadbright,15.0,8,1,1088.122844696045,1088.120937347412,1469,1
387,quadbright,16.0,9,1,492.97595024108887,492.97285079956055,1251,0
388,quadbright,16.0,9,0,1021.2521553039551,1021.2490558624268,922,1
389,quadbright,17.0,19,0,524.0168571472168,524.0120887756348,1144,1
390,quadbright,18.0,13,1,626.2500286102295,626.2469291687012,1475,1
391,quadbright,19.0,9,1,712.7041816711426,712.7029895782471,836,1
392,quadbright,20.0,8,1,636.2860202789307,636.2819671630859,1255,1
393,quadbright,21.0,5,0,624.5546340942383,624.5489120483398,842,1
394,quadbright,22.0,21,1,625.9000301361084,625.8988380432129,922,0
395,quadbright,22.0,21,1,591.7439460754395,591.7398929595947,1040,1
396,quadbright,23.0,14,1,500.3349781036377,500.3337860107422,915,1
397,quadbright,24.0,14,1,490.131139755249,490.12136459350586,1422,1
398,quadbright,25.0,17,1,505.7082176208496,505.7060718536377,1191,1
399,quadbright,26.0,18,1,495.3000545501709,495.29290199279785,993,1
400,quadbright,27.0,16,1,922.9989051818848,922.9941368103027,898,1
401,quadbright,28.0,12,0,824.246883392334,824.2461681365967,852,1
402,quadbright,29.0,14,1,628.3218860626221,628.3211708068848,1147,1
403,quadbright,30.0,14,0,693.4518814086914,693.4499740600586,1293,0
