trial,condition,eccentricity,magnitude,correct,srt_ms,keyboard_rt_ms,pre_change_ms,valid
1,control,5.0,20,1,64.93997573852539,4653.331995010376,916,1
2,control,6.0,20,1,96.14706039428711,593.7750339508057,901,1
3,control,7.0,20,1,99.27105903625488,1153.6750793457031,1235,1
4,control,8.0,20,1,198.9281177520752,1153.9387702941895,1182,1
5,control,9.0,20,1,99.05505180358887,891.136884689331,1280,1
6,control,10.0,20,1,296.8900203704834,988.9519214630127,815,1
7,control,11.0,20,1,1187.5331401824951,1187.525987625122,972,1
8,control,12.0,20,1,982.8097820281982,982.8088283538818,833,0
9,control,12.0,20,1,988.4202480316162,988.4171485900879,1440,1
10,control,13.0,20,1,835.1690769195557,835.1650238037109,1230,1
11,control,14.0,20,1,888.7858390808105,888.7820243835449,1309,1
12,control,15.0,20,1,815.871000289917,815.8698081970215,1120,1
13,control,16.0,20,1,758.5558891296387,758.554220199585,1217,1
14,control,17.0,20,1,890.6519412994385,890.6378746032715,1351,1
15,control,18.0,20,1,891.118049621582,891.1168575286865,1254,1
16,control,19.0,20,1,1253.3760070800781,1253.3729076385498,1386,1
17,control,20.0,20,1,955.625057220459,955.6210041046143,1110,1
18,control,21.0,20,1,760.0162029266357,760.0150108337402,881,1
19,control,22.0,20,1,861.6518974304199,861.6480827331543,1451,1
20,control,23.0,20,1,757.9069137573242,757.9038143157959,1006,1
21,control,24.0,20,1,957.3330879211426,957.3302268981934,912,1
22,control,25.0,20,1,988.502025604248,988.494873046875,1029,1
23,control,26.0,20,1,693.087100982666,693.0861473083496,1141,0
24,control,26.0,20,1,790.8461093902588,790.8420562744141,1262,1
25,control,27.0,20,1,856.9290637969971,856.9252490997314,1423,0
26,control,27.0,20,1,857.1360111236572,857.1310043334961,1083,1
27,control,28.0,20,1,792.2570705413818,792.2542095184326,1017,1
28,control,29.0,20,0,1279.6509265899658,1279.6502113342285,850,1
29,control,30.0,20,1,758.8326930999756,758.82887840271,1286,0
30,control,30.0,20,0,2904.423952102661,2904.419183731079,1153,1
31,control,5.0,20,1,99.14112091064453,763.3719444274902,1425,1
32,control,6.0,20,1,97.08189964294434,691.1771297454834,1012,1
33,control,7.0,20,1,99.28178787231445,702.8849124908447,835,1
34,control,8.0,20,1,98.32906723022461,760.4672908782959,1119,1
35,control,9.0,20,1,757.1110725402832,757.1079730987549,929,0
36,control,9.0,20,1,99.19309616088867,757.7300071716309,1064,1
37,control,10.0,20,1,658.4029197692871,658.3998203277588,1102,1
38,control,11.0,20,1,590.5249118804932,590.522050857544,1193,1
39,control,12.0,20,1,102.17070579528809,695.8127021789551,1451,0
40,control,12.0,20,1,951.6041278839111,951.6022205352783,1085,1
41,control,13.0,20,1,692.742109298706,692.7411556243896,1432,1
42,control,14.0,20,1,682.3008060455322,682.2998523712158,1428,1
43,control,15.0,20,1,691.9901371002197,691.986083984375,1267,1
44,control,16.0,20,1,780.0099849700928,780.00807762146,1474,1
45,control,17.0,20,1,694.1239833831787,694.1220760345459,1042,1
46,control,18.0,20,1,790.334939956665,790.3320789337158,1266,1
47,control,19.0,20,1,697.1921920776367,697.1890926361084,886,1
48,control,20.0,20,1,692.6858425140381,692.6841735839844,1128,1
49,control,21.0,20,1,691.6439533233643,691.641092300415,862,1
50,control,22.0,20,1,792.9427623748779,792.9389476776123,824,1
51,control,23.0,20,1,791.1882400512695,791.1860942840576,921,1
52,control,24.0,20,1,690.4821395874023,690.4799938201904,1253,1
53,control,25.0,20,1,781.1501026153564,781.1489105224609,1176,1
54,control,26.0,20,1,658.0088138580322,658.0018997192383,1297,0
55,control,26.0,20,1,790.1601791381836,790.1561260223389,1346,1
56,control,27.0,20,1,627.5880336761475,627.5851726531982,1361,1
57,control,28.0,20,1,1253.7951469421387,1253.7932395935059,1134,1
58,control,29.0,23,1,1417.3078536987305,1417.3059463500977,822,1
59,control,30.0,23,1,1318.9051151275635,1318.8998699188232,1196,1
60,control,5.0,17,1,67.11506843566895,692.7170753479004,1335,1
61,control,6.0,17,1,65.82021713256836,560.4641437530518,853,1
62,control,7.0,17,1,67.00491905212402,859.1790199279785,967,1
63,control,8.0,17,1,66.37406349182129,682.502031326294,965,1
64,control,9.0,17,1,65.55008888244629,693.2508945465088,1237,1
65,control,10.0,17,1,64.97406959533691,824.7528076171875,1334,1
66,control,11.0,17,1,627.281904220581,627.2809505462646,929,1
67,control,12.0,17,1,989.4120693206787,989.4089698791504,891,1
68,control,13.0,17,1,66.01715087890625,593.4410095214844,1468,0
69,control,13.0,17,1,891.1619186401367,891.1569118499756,816,1
70,control,14.0,17,1,592.7276611328125,592.7238464355469,1077,1
71,control,15.0,17,1,658.7800979614258,658.7779521942139,1135,1
72,control,16.0,17,1,724.8492240905762,724.8461246490479,1007,1
73,control,17.0,17,1,648.5929489135742,648.5919952392578,1015,1
74,control,18.0,17,1,699.1796493530273,699.1779804229736,1004,1
75,control,19.0,17,1,750.8931159973145,750.891923904419,1000,1
76,control,20.0,17,1,769.9248790740967,769.9220180511475,1485,1
77,control,21.0,17,1,758.8820457458496,758.8789463043213,848,1
78,control,22.0,17,1,750.3669261932373,750.3659725189209,823,1
79,control,23.0,17,1,824.0339756011963,824.0320682525635,1152,1
80,control,24.0,17,0,666.3789749145508,666.3768291473389,920,1
81,control,25.0,17,1,692.1110153198242,692.1088695526123,955,1
82,control,26.0,17,1,757.6291561126709,757.6251029968262,1232,1
83,control,27.0,17,1,824.2409229278564,824.2380619049072,1218,1
84,control,28.0,17,0,1078.197956085205,1078.1970024108887,1107,1
85,control,29.0,23,1,879.112958908081,879.1120052337646,1269,1
86,control,30.0,23,1,944.5507526397705,944.5497989654541,1354,1
87,control,5.0,17,1,98.41394424438477,691.3161277770996,1405,1
88,control,6.0,17,1,132.50994682312012,724.9300479888916,902,1
89,control,7.0,17,1,96.32205963134766,689.6240711212158,945,1
90,control,8.0,17,1,64.9571418762207,560.8282089233398,979,1
91,control,9.0,17,1,129.09388542175293,683.323860168457,1465,1
92,control,10.0,17,1,823.9710330963135,823.9660263061523,1239,1
93,control,11.0,17,1,730.712890625,730.7119369506836,1057,1
94,control,12.0,17,1,693.4611797332764,693.4599876403809,983,1
95,control,13.0,17,1,690.8133029937744,690.8061504364014,1460,1
96,control,14.0,17,1,757.6689720153809,757.6661109924316,950,1
97,control,15.0,17,1,767.143964767456,767.1351432800293,1216,1
98,control,16.0,17,1,756.7219734191895,756.721019744873,959,1
99,control,17.0,17,1,825.8931636810303,825.8888721466064,1448,1
100,control,18.0,17,1,756.5922737121582,756.584882736206,1446,1
101,control,19.0,17,1,759.8631381988525,759.8583698272705,1472,1
102,control,20.0,17,1,559.5309734344482,559.5259666442871,1321,1
103,control,21.0,17,0,1066.1730766296387,1066.1661624908447,840,1
104,control,22.0,17,1,648.4086513519287,648.4086513519287,1389,1
105,control,23.0,17,1,695.4278945922852,695.4269409179688,1132,1
106,control,24.0,20,1,648.6940383911133,648.6918926239014,1125,1
107,control,25.0,17,1,625.1058578491211,625.1049041748047,1024,1
108,control,26.0,17,1,659.2607498168945,659.2597961425781,1205,1
109,control,27.0,17,1,686.1822605133057,686.1813068389893,1030,1
110,control,28.0,20,1,583.4739208221436,583.4729671478271,1249,1
111,control,29.0,20,1,627.0439624786377,627.0430088043213,863,1
112,control,30.0,20,1,582.1659564971924,582.165002822876,1349,1
113,control,5.0,14,1,99.05791282653809,760.7660293579102,1345,1
114,control,6.0,14,1,67.9469108581543,692.5420761108398,851,1
115,control,7.0,14,1,690.5269622802734,690.5252933502197,1035,1
116,control,8.0,14,1,794.6949005126953,794.6908473968506,1081,1
117,control,9.0,14,1,65.24419784545898,703.2382488250732,1260,1
118,control,10.0,14,1,1155.6980609893799,1155.6921005249023,1113,1
119,control,11.0,14,1,528.3980369567871,528.3970832824707,1496,1
120,control,12.0,14,1,101.23682022094727,692.6929950714111,1260,1
121,control,13.0,14,1,526.623010635376,526.6199111938477,1195,1
122,control,14.0,14,1,601.8991470336914,601.8948554992676,1362,1
123,control,15.0,14,1,590.9271240234375,590.9240245819092,937,1
124,control,16.0,14,1,472.0141887664795,472.01013565063477,1489,0
125,control,16.0,14,1,592.897891998291,592.8959846496582,1011,1
126,control,17.0,14,1,790.4529571533203,790.4503345489502,1184,0
127,control,17.0,14,1,791.5921211242676,791.5840148925781,1058,1
128,control,18.0,14,1,717.2479629516602,717.2470092773438,1127,1
129,control,19.0,14,1,585.582971572876,585.5808258056641,1263,1
130,control,20.0,14,1,890.2378082275391,890.2359008789062,1455,1
131,control,21.0,20,1,559.8127841949463,559.8089694976807,1346,1
132,control,22.0,14,1,657.5608253479004,657.5579643249512,1356,1
133,control,23.0,14,1,560.9841346740723,560.9831809997559,1269,1
134,control,24.0,20,1,660.3250503540039,660.3250503540039,829,1
135,control,25.0,14,1,890.7840251922607,890.7833099365234,880,1
136,control,26.0,14,1,692.4140453338623,692.4128532409668,1160,1
137,control,27.0,14,0,896.9759941101074,896.975040435791,1244,1
138,control,28.0,20,1,693.2978630065918,693.2899951934814,835,1
139,control,29.0,20,1,679.9559593200684,679.955005645752,1236,1
140,control,30.0,20,1,758.4781646728516,758.4691047668457,999,1
141,control,5.0,14,1,100.21710395812988,659.9562168121338,1025,1
142,control,6.0,14,1,90.26527404785156,548.4542846679688,1176,1
143,control,7.0,14,1,104.67028617858887,601.4382839202881,1130,1
144,control,8.0,14,1,495.55087089538574,495.54991722106934,1353,1
145,control,9.0,14,1,583.3778381347656,583.3761692047119,1098,1
146,control,10.0,14,1,813.1260871887207,813.1241798400879,994,1
147,control,11.0,14,1,858.2162857055664,858.2122325897217,1275,1
148,control,12.0,14,1,627.6278495788574,627.626895904541,833,1
149,control,13.0,14,1,625.4541873931885,625.4503726959229,1093,1
150,control,14.0,14,1,687.3409748077393,687.3400211334229,1329,1
151,control,15.0,14,1,792.9651737213135,792.9632663726807,869,1
152,control,16.0,14,1,649.7080326080322,649.7068405151367,1372,1
153,control,17.0,14,1,758.8160037994385,758.8150501251221,951,1
154,control,18.0,14,1,659.1501235961914,659.1489315032959,1458,1
155,control,19.0,14,1,892.6682472229004,892.6591873168945,1285,1
156,control,20.0,14,1,561.2428188323975,561.2421035766602,987,1
157,control,21.0,20,1,559.5519542694092,559.546709060669,1384,1
158,control,22.0,14,1,657.3550701141357,657.3491096496582,1207,1
159,control,23.0,14,1,746.474027633667,746.4730739593506,1030,1
160,control,24.0,18,1,659.6648693084717,659.6620082855225,988,1
161,control,25.0,14,1,660.236120223999,660.2320671081543,1451,1
162,control,26.0,14,0,1142.6339149475098,1142.6329612731934,811,1
163,control,27.0,17,1,547.6078987121582,547.6069450378418,1240,1
164,control,28.0,18,1,766.1478519439697,766.1387920379639,1006,1
165,control,29.0,17,0,957.3607444763184,957.3588371276855,863,1
166,control,30.0,17,1,769.2351341247559,769.2320346832275,1494,1
167,control,5.0,11,1,66.24388694763184,659.2550277709961,1322,1
168,control,6.0,11,1,88.9890193939209,484.5731258392334,1229,1
169,control,7.0,11,1,98.29115867614746,691.6983127593994,1442,1
170,control,8.0,11,1,98.74606132507324,692.742109298706,807,1
171,control,9.0,11,1,670.1309680938721,670.1278686523438,1040,1
172,control,10.0,11,1,1054.851770401001,1054.8489093780518,978,1
173,control,11.0,11,1,664.9680137634277,664.9651527404785,1267,1
174,control,12.0,11,1,658.991813659668,658.9889526367188,882,1
175,control,13.0,11,1,761.0418796539307,761.0397338867188,982,1
176,control,14.0,11,1,595.5889225006104,595.585823059082,939,1
177,control,15.0,11,1,791.8720245361328,791.8679714202881,1138,1
178,control,16.0,11,1,692.1977996826172,692.194938659668,1341,1
179,control,17.0,11,1,760.5857849121094,760.5841159820557,1409,1
180,control,18.0,11,1,592.3929214477539,592.3891067504883,1430,1
181,control,19.0,11,1,793.9279079437256,793.9238548278809,1046,1
182,control,20.0,11,1,892.4710750579834,892.4679756164551,954,1
183,control,21.0,18,1,561.0690116882324,561.068058013916,1255,1
184,control,22.0,11,1,798.3448505401611,798.3429431915283,839,1
185,control,23.0,11,1,881.2539577484131,881.2530040740967,927,1
186,control,24.0,18,1,856.9269180297852,856.924295425415,1340,1
187,control,25.0,11,0,999.208927154541,999.2051124572754,1472,1
188,control,26.0,17,1,790.8868789672852,790.881872177124,1255,1
189,control,27.0,17,1,958.3101272583008,958.306074142456,851,1
190,control,28.0,18,1,867.1391010284424,867.131233215332,1470,1
191,control,29.0,20,1,758.3050727844238,758.2991123199463,1047,1
192,control,30.0,17,0,990.7016754150391,990.7007217407227,1268,1
193,control,5.0,11,1,99.16114807128906,792.504072189331,1097,1
194,control,6.0,11,1,98.78230094909668,594.5420265197754,817,1
195,control,7.0,11,1,99.8389720916748,593.7087535858154,1132,1
196,control,8.0,11,1,98.79899024963379,549.7331619262695,1467,1
197,control,9.0,11,1,98.44708442687988,856.2850952148438,1428,1
198,control,10.0,11,1,594.4712162017822,594.4712162017822,928,1
199,control,11.0,11,1,693.3121681213379,693.3090686798096,1093,1
200,control,12.0,11,1,592.4990177154541,592.4952030181885,1354,1
201,control,13.0,11,1,859.7970008850098,859.7888946533203,1284,1
202,control,14.0,11,1,569.9303150177002,569.9260234832764,1088,1
203,control,15.0,11,1,762.1791362762451,762.1750831604004,809,1
204,control,16.0,11,1,725.5549430847168,725.5537509918213,834,1
205,control,17.0,11,1,593.6992168426514,593.696117401123,921,1
206,control,18.0,11,1,658.5898399353027,658.5867404937744,1100,1
207,control,19.0,11,1,781.2590599060059,781.2581062316895,1445,1
208,control,20.0,11,1,758.6061954498291,758.6030960083008,1402,1
209,control,21.0,18,1,593.6110019683838,593.6110019683838,1132,1
210,control,22.0,11,1,657.8290462493896,657.8202247619629,818,1
211,control,23.0,11,0,724.3211269378662,724.3199348449707,1064,1
212,control,24.0,17,1,727.5409698486328,727.5307178497314,1116,1
213,control,25.0,14,1,713.0851745605469,713.0842208862305,1439,1
214,control,26.0,17,1,660.2821350097656,660.2802276611328,1491,1
215,control,27.0,15,1,660.181999206543,660.1779460906982,1450,1
216,control,28.0,17,1,714.9481773376465,714.9472236633301,841,1
217,control,29.0,20,1,922.0430850982666,922.0378398895264,891,1
218,control,30.0,20,1,561.398983001709,561.3980293273926,1458,1
219,control,5.0,8,1,66.01595878601074,616.5030002593994,1428,1
220,control,6.0,8,1,66.50996208190918,528.3660888671875,1065,1
221,control,7.0,8,1,64.73231315612793,658.0121517181396,1318,1
222,control,8.0,8,1,925.0369071960449,925.0340461730957,1273,1
223,control,9.0,8,1,724.4369983673096,724.4322299957275,1289,1
224,control,10.0,8,1,591.7351245880127,591.7320251464844,1301,1
225,control,11.0,8,1,600.837230682373,600.8310317993164,1287,1
226,control,12.0,8,1,792.6340103149414,792.625904083252,1381,1
227,control,13.0,8,0,1187.4496936798096,1187.445878982544,981,1
228,control,14.0,8,1,1087.8498554229736,1087.8479480743408,847,1
229,control,15.0,8,1,669.1439151763916,669.140100479126,1025,1
230,control,16.0,8,1,789.1860008239746,789.1840934753418,1444,1
231,control,17.0,8,1,847.3668098449707,847.3658561706543,853,1
232,control,18.0,8,0,717.2732353210449,717.2720432281494,1459,1
233,control,19.0,8,1,923.5620498657227,923.5570430755615,880,1
234,control,20.0,8,1,791.4412021636963,791.4371490478516,1199,1
235,control,21.0,17,1,756.9069862365723,756.9029331207275,1224,1
236,control,22.0,8,0,791.9847965240479,791.9838428497314,1495,1
237,control,23.0,14,1,768.9359188079834,768.9311504364014,1314,1
238,control,24.0,17,1,760.167121887207,760.1652145385742,1387,1
239,control,25.0,14,1,653.6478996276855,653.64670753479,899,1
240,control,26.0,15,0,1154.160737991333,1154.1588306427002,1226,1
241,control,27.0,15,0,964.3898010253906,964.3876552581787,1352,1
242,control,28.0,17,0,792.015790939331,792.015790939331,1497,1
243,control,29.0,18,1,663.9409065246582,663.938045501709,1320,1
244,control,30.0,20,1,724.9009609222412,724.8959541320801,1388,1
245,control,5.0,8,1,65.50002098083496,659.6570014953613,1100,1
246,control,6.0,8,1,66.73908233642578,659.9040031433105,1439,1
247,control,7.0,8,1,65.6728744506836,758.1348419189453,804,1
248,control,8.0,8,1,258.61406326293945,658.0150127410889,1317,1
249,control,9.0,8,1,593.7790870666504,593.778133392334,1177,1
250,control,10.0,8,1,784.3129634857178,784.3120098114014,1071,1
251,control,11.0,8,1,721.904993057251,721.9028472900391,1166,1
252,control,12.0,8,1,758.0070495605469,758.0058574676514,1156,1
253,control,13.0,11,1,658.2319736480713,658.2269668579102,1424,1
254,control,14.0,8,0,855.5150032043457,855.5130958557129,972,1
255,control,15.0,8,1,923.0442047119141,923.0411052703857,1253,1
256,control,16.0,8,0,1131.9141387939453,1131.9029331207275,808,1
257,control,17.0,8,1,1121.7682361602783,1121.7620372772217,979,1
258,control,18.0,11,0,725.5198955535889,725.517988204956,1209,1
259,control,19.0,8,0,734.4999313354492,734.4961166381836,1388,1
260,control,20.0,8,1,803.2128810882568,803.210973739624,1363,1
261,control,21.0,17,1,856.532096862793,856.5239906311035,832,1
262,control,22.0,11,1,1064.3730163574219,1064.371109008789,885,1
263,control,23.0,14,1,682.1410655975342,682.1389198303223,1356,1
264,control,24.0,15,1,525.1169204711914,525.1116752624512,1433,1
265,control,25.0,12,0,726.024866104126,726.0222434997559,1212,1
266,control,26.0,17,1,669.7549819946289,669.7521209716797,1404,1
267,control,27.0,17,1,797.6138591766357,797.6059913635254,1345,1
268,control,28.0,18,1,649.0004062652588,648.9992141723633,1419,1
269,control,29.0,18,0,998.8133907318115,998.8081455230713,938,1
270,control,30.0,18,1,757.0650577545166,757.0610046386719,1334,1
271,control,5.0,5,1,65.64784049987793,659.3170166015625,914,1
272,control,6.0,5,1,65.9182071685791,725.9719371795654,954,1
273,control,7.0,5,1,98.84214401245117,699.0931034088135,984,1
274,control,8.0,5,1,560.8210563659668,560.8201026916504,958,1
275,control,9.0,5,1,166.16296768188477,701.2250423431396,1079,1
276,control,10.0,5,0,798.5038757324219,798.5007762908936,838,1
277,control,11.0,5,1,725.8129119873047,725.806713104248,960,1
278,control,12.0,5,1,692.9616928100586,692.9590702056885,1287,1
279,control,13.0,11,1,596.168041229248,596.1673259735107,1354,1
280,control,14.0,11,1,560.495138168335,560.4879856109619,1285,1
281,control,15.0,5,1,658.5540771484375,658.5450172424316,1046,1
282,control,16.0,11,0,561.97190284729,561.9699954986572,1201,1
283,control,17.0,5,1,783.2801342010498,783.2791805267334,992,1
284,control,18.0,14,1,749.0890026092529,749.086856842041,1042,1
285,control,19.0,11,1,503.4008026123047,503.39818000793457,1350,1
286,control,20.0,5,0,659.6143245697021,659.6071720123291,933,1
287,control,21.0,15,0,1053.7240505218506,1053.7219047546387,966,1
288,control,22.0,11,1,801.2878894805908,801.2826442718506,1165,1
289,control,23.0,12,1,724.876880645752,724.8749732971191,1077,1
290,control,24.0,15,1,1163.9461517333984,1163.9392375946045,869,1
291,control,25.0,14,1,659.3811511993408,659.3749523162842,872,1
292,control,26.0,17,0,848.1719493865967,848.1700420379639,1003,1
293,control,27.0,17,1,725.4879474639893,725.48508644104,1048,1
294,control,28.0,18,1,712.8229141235352,712.8219604492188,1032,1
295,control,29.0,20,0,1424.9999523162842,1424.9989986419678,1032,1
296,control,30.0,18,0,689.8880004882812,689.8860931396484,1060,1
297,control,5.0,5,1,65.67692756652832,649.7759819030762,1348,1
298,control,6.0,5,1,198.3020305633545,661.3256931304932,1014,1
299,control,7.0,5,1,63.06004524230957,594.3500995635986,852,1
300,control,8.0,5,1,594.3272113800049,594.325065612793,841,1
301,control,9.0,5,1,66.21479988098145,495.01991271972656,1200,1
302,control,10.0,8,1,659.3301296234131,659.3270301818848,1216,1
303,control,11.0,5,0,782.5980186462402,782.5973033905029,1485,1
304,control,12.0,5,0,704.3478488922119,704.3452262878418,1105,1
305,control,13.0,9,1,495.1281547546387,495.12720108032227,1494,1
306,control,14.0,11,1,659.6448421478271,659.6357822418213,825,1
307,control,15.0,5,1,1814.8472309112549,1814.845085144043,1135,1
308,control,16.0,14,1,629.4610500335693,629.4569969177246,1385,1
309,control,17.0,5,0,855.6127548217773,855.6077480316162,1483,1
310,control,18.0,14,1,857.7990531921387,857.795000076294,855,1
311,control,19.0,11,1,627.4118423461914,627.403974533081,1032,1
312,control,20.0,8,1,758.8441371917725,758.842945098877,1318,1
313,control,21.0,17,1,598.0343818664551,598.0312824249268,920,1
314,control,22.0,9,1,625.8518695831299,625.8490085601807,804,1
315,control,23.0,12,1,625.0503063201904,625.0491142272949,1214,1
316,control,24.0,14,1,560.664176940918,560.650110244751,1007,1
317,control,25.0,14,1,560.4000091552734,560.3899955749512,1113,1
318,control,26.0,18,1,557.7127933502197,557.7118396759033,1239,1
319,control,27.0,16,1,562.3219013214111,562.3178482055664,1195,1
320,control,28.0,17,1,946.9950199127197,946.9931125640869,1206,1
321,control,29.0,21,1,528.2731056213379,528.2721519470215,1305,1
322,control,30.0,20,1,769.4089412689209,769.4070339202881,1028,1
323,control,5.0,2,0,65.6728744506836,866.5311336517334,1202,1
324,control,6.0,2,0,67.35491752624512,797.8718280792236,1453,1
325,control,7.0,2,1,67.2597885131836,693.1710243225098,1388,1
326,control,8.0,2,1,957.3709964752197,957.3700428009033,1179,1
327,control,9.0,2,1,795.490026473999,795.4850196838379,1023,1
328,control,10.0,8,1,458.85491371154785,458.85205268859863,1167,1
329,control,11.0,8,0,721.9362258911133,721.9352722167969,972,1
330,control,12.0,8,0,624.8819828033447,624.8791217803955,954,1
331,control,13.0,9,1,520.9190845489502,520.9181308746338,1042,1
332,control,14.0,9,1,630.0458908081055,630.0418376922607,1061,1
333,control,15.0,2,0,780.5519104003906,780.5500030517578,1122,1
334,control,16.0,14,1,482.9592704772949,482.9580783843994,806,1
335,control,17.0,8,1,464.4198417663574,464.418888092041,932,1
336,control,18.0,12,1,522.5808620452881,522.5739479064941,1210,1
337,control,19.0,9,1,560.2788925170898,560.2779388427734,867,1
338,control,20.0,8,0,1187.9651546478271,1187.9630088806152,1456,1
339,control,21.0,17,1,701.6668319702148,701.6646862030029,957,1
340,control,22.0,9,1,958.1799507141113,958.1689834594727,1097,1
341,control,23.0,11,1,528.2497406005859,528.2497406005859,1414,1
342,control,24.0,14,0,1120.1231479644775,1120.1190948486328,1056,1
343,control,25.0,13,1,551.2678623199463,551.2666702270508,1434,1
344,control,26.0,18,1,632.3809623718262,632.3788166046143,1232,1
345,control,27.0,16,1,593.5158729553223,593.5149192810059,1389,1
346,control,28.0,17,1,554.2657375335693,554.2647838592529,1117,1
347,control,29.0,21,1,626.9650459289551,626.9621849060059,1126,1
348,control,30.0,20,1,784.696102142334,784.6939563751221,1037,1
349,control,5.0,5,1,65.94204902648926,625.1249313354492,978,1
350,control,6.0,5,1,63.28177452087402,691.0598278045654,1139,1
351,control,7.0,2,0,56.99491500854492,1078.2999992370605,1302,1
352,control,8.0,2,1,65.74797630310059,626.7561912536621,1025,1
353,control,9.0,2,1,297.00303077697754,865.1289939880371,913,1
354,control,10.0,6,1,592.2110080718994,592.2050476074219,1478,1
355,control,11.0,11,1,802.044153213501,802.0401000976562,1244,1
356,control,12.0,11,1,625.0479221343994,625.0400543212891,1042,1
357,control,13.0,8,0,1330.4672241210938,1330.4650783538818,1003,1
358,control,14.0,9,1,790.8420562744141,790.834903717041,918,1
359,control,15.0,5,0,790.107011795044,790.1051044464111,1266,1
360,control,16.0,12,1,560.7700347900391,560.7657432556152,1464,1
361,control,17.0,8,0,755.8908462524414,755.8810710906982,1002,1
362,control,18.0,12,1,568.1140422821045,568.1111812591553,910,1
363,control,19.0,9,1,857.5108051300049,857.5088977813721,1175,1
364,control,20.0,9,1,530.8489799499512,530.8458805084229,1428,1
365,control,21.0,16,1,528.5308361053467,528.5298824310303,1428,1
366,control,22.0,8,1,901.564359664917,901.5612602233887,931,1
367,control,23.0,11,1,615.6220436096191,615.6210899353027,1262,1
368,control,24.0,15,1,524.6667861938477,524.6610641479492,1010,1
369,control,25.0,13,1,592.0350551605225,592.0319557189941,963,1
370,control,26.0,17,1,602.8060913085938,602.7998924255371,1408,1
371,control,27.0,15,1,520.7951068878174,520.794153213501,847,1
372,control,28.0,16,1,529.310941696167,529.3068885803223,1036,1
373,control,29.0,20,1,594.3019390106201,594.3002700805664,1473,1
374,control,30.0,19,1,691.1537647247314,691.1487579345703,972,1
375,control,5.0,5,1,100.1126766204834,529.059886932373,930,1
376,control,6.0,5,1,104.42280769348145,700.639009475708,965,1
377,control,7.0,5,1,165.4956340789795,627.2728443145752,1120,1
378,control,8.0,1,1,923.3889579772949,923.3846664428711,1409,1
379,control,9.0,1,0,758.1071853637695,758.1028938293457,1436,1
380,control,10.0,6,1,757.1110725402832,757.1079730987549,1123,1
381,control,11.0,11,1,461.3020420074463,461.2998962402344,936,1
382,control,12.0,11,1,461.99488639831543,461.993932723999,1236,1
383,control,13.0,9,1,977.7143001556396,977.7133464813232,1217,1
384,control,14.0,8,1,831.7749500274658,831.7718505859375,1128,1
385,control,15.0,8,1,459.5928192138672,459.58709716796875,1251,1
386,control,16.0,12,1,406.3258171081543,406.3239097595215,1199,1
387,control,17.0,9,1,732.6669692993164,732.6638698577881,1454,1
388,control,18.0,11,1,834.4478607177734,834.4440460205078,1066,1
389,control,19.0,8,1,1215.2502536773682,1215.2490615844727,898,1
390,control,20.0,9,1,693.2249069213867,693.220853805542,1416,1
391,control,21.0,16,1,592.418909072876,592.414140701294,1088,1
392,control,22.0,8,1,636.8000507354736,636.7981433868408,1050,1
393,control,23.0,9,0,747.9581832885742,747.9569911956787,1228,1
394,control,24.0,15,1,757.5650215148926,757.559061050415,949,1
395,control,25.0,12,1,758.552074432373,758.5501670837402,1178,1
396,control,26.0,17,1,650.6857872009277,650.6838798522949,1417,1
397,control,27.0,15,1,822.7450847625732,822.7400779724121,998,1
398,control,28.0,16,1,537.5559329986572,537.5518798828125,1303,1
399,control,29.0,20,1,602.6160717010498,602.6077270507812,993,1
400,control,30.0,19,1,824.0292072296143,824.0220546722412,827,1
1,quadbright,5.0,20,1,103.99508476257324,893.402099609375,922,1
2,quadbright,6.0,20,1,98.68597984313965,1077.8019428253174,1399,1
3,quadbright,7.0,20,1,98.06513786315918,1249.9160766601562,1379,1
4,quadbright,8.0,20,1,1120.4829216003418,1120.481014251709,1392,1
5,quadbright,9.0,20,1,1220.6571102142334,1220.6549644470215,1298,1
6,quadbright,10.0,20,1,924.8018264770508,924.8001575469971,1478,1
7,quadbright,11.0,20,1,852.6887893676758,852.686882019043,1150,1
8,quadbright,12.0,20,1,856.0469150543213,856.0450077056885,1371,1
9,quadbright,13.0,20,1,857.3389053344727,857.3341369628906,1147,1
10,quadbright,14.0,20,1,856.2419414520264,856.2359809875488,1344,1
11,quadbright,15.0,20,1,954.0441036224365,954.0419578552246,1309,1
12,quadbright,16.0,20,1,1737.4448776245117,1737.4439239501953,833,1
13,quadbright,17.0,20,1,699.8059749603271,699.8038291931152,1128,1
14,quadbright,18.0,20,1,988.5640144348145,988.563060760498,1262,1
15,quadbright,19.0,20,1,790.1549339294434,790.151834487915,1051,1
16,quadbright,20.0,20,1,856.381893157959,856.3802242279053,1439,1
17,quadbright,21.0,20,1,757.5869560241699,757.5778961181641,923,1
18,quadbright,22.0,20,1,757.3649883270264,757.3609352111816,1002,1
19,quadbright,23.0,20,1,1384.3390941619873,1384.3331336975098,1232,1
20,quadbright,24.0,20,0,1649.7950553894043,1649.7859954833984,1086,1
21,quadbright,25.0,20,0,1474.423885345459,1474.4229316711426,1259,1
22,quadbright,26.0,20,1,846.6880321502686,846.686840057373,1398,1
23,quadbright,27.0,20,0,1164.0520095825195,1164.0498638153076,1073,1
24,quadbright,28.0,20,0,1187.8769397735596,1187.8688335418701,1137,1
25,quadbright,29.0,20,1,958.8921070098877,958.8899612426758,1322,1
26,quadbright,30.0,20,1,790.1809215545654,790.1771068572998,1468,1
27,quadbright,5.0,20,1,68.07684898376465,761.3468170166016,962,0
28,quadbright,5.0,20,1,98.92487525939941,758.037805557251,1168,1
29,quadbright,6.0,20,1,98.09207916259766,657.5748920440674,1031,1
30,quadbright,7.0,20,1,726.2279987335205,726.2270450592041,1073,1
31,quadbright,8.0,20,1,101.70793533325195,801.8798828125,1426,0
32,quadbright,8.0,20,1,99.7309684753418,760.3731155395508,1360,0
33,quadbright,8.0,20,1,64.21113014221191,856.5258979797363,1114,1
34,quadbright,9.0,20,1,759.9658966064453,759.9618434906006,900,1
35,quadbright,10.0,20,1,791.4140224456787,791.4078235626221,1195,1
36,quadbright,11.0,20,1,790.4791831970215,790.4660701751709,1174,1
37,quadbright,12.0,20,1,847.9280471801758,847.9268550872803,1136,1
38,quadbright,13.0,20,1,790.863037109375,790.8549308776855,921,1
39,quadbright,14.0,20,0,1317.7170753479004,1317.7151679992676,1375,1
40,quadbright,15.0,20,1,658.0328941345215,658.0290794372559,1195,1
41,quadbright,16.0,20,1,568.0088996887207,568.0038928985596,1069,1
42,quadbright,17.0,20,1,682.2762489318848,682.2741031646729,843,0
43,quadbright,17.0,20,1,703.2499313354492,703.2461166381836,1369,1
44,quadbright,18.0,20,1,1120.4919815063477,1120.488166809082,1119,1
45,quadbright,19.0,20,1,626.8949508666992,626.8939971923828,1393,1
46,quadbright,20.0,20,1,619.7199821472168,619.7187900543213,837,1
47,quadbright,21.0,20,1,1319.382905960083,1319.3769454956055,1009,1
48,quadbright,22.0,20,1,726.1660099029541,726.1590957641602,1069,0
49,quadbright,22.0,20,1,768.4900760650635,768.4800624847412,894,1
50,quadbright,23.0,20,0,890.2199268341064,890.214204788208,1062,1
51,quadbright,24.0,23,1,801.2967109680176,801.2888431549072,1198,1
52,quadbright,25.0,23,1,621.6831207275391,621.6819286346436,945,1
53,quadbright,26.0,20,1,659.1219902038574,659.1129302978516,1068,1
54,quadbright,27.0,23,1,627.3860931396484,627.385139465332,1217,1
55,quadbright,28.0,23,1,858.745813369751,858.7441444396973,1392,1
56,quadbright,29.0,20,1,856.8289279937744,856.827974319458,1177,1
57,quadbright,30.0,20,1,812.8950595855713,812.8941059112549,1080,1
58,quadbright,5.0,17,1,66.25485420227051,659.6939563751221,1011,1
59,quadbright,6.0,17,1,66.03074073791504,693.3298110961914,891,1
60,quadbright,7.0,17,1,99.64990615844727,560.309886932373,945,1
61,quadbright,8.0,17,1,99.12490844726562,627.2251605987549,889,1
62,quadbright,9.0,17,1,66.35189056396484,627.2099018096924,846,1
63,quadbright,10.0,17,1,858.9990139007568,858.9968681335449,1121,1
64,quadbright,11.0,17,1,699.1550922393799,699.1531848907471,1072,1
65,quadbright,12.0,17,1,592.883825302124,592.8821563720703,1144,1
66,quadbright,13.0,17,1,628.1170845031738,628.1142234802246,813,1
67,quadbright,14.0,23,1,692.0387744903564,692.03782081604,1401,1
68,quadbright,15.0,17,1,754.2352676391602,754.2352676391602,977,1
69,quadbright,16.0,17,1,845.8681106567383,845.8671569824219,1149,1
70,quadbright,17.0,17,1,767.369270324707,767.3661708831787,1344,1
71,quadbright,18.0,17,1,658.3359241485596,658.3280563354492,1489,1
72,quadbright,19.0,17,1,762.6261711120605,762.6221179962158,1238,1
73,quadbright,20.0,17,1,857.32102394104,857.3169708251953,1310,1
74,quadbright,21.0,17,1,692.1651363372803,692.1629905700684,1476,1
75,quadbright,22.0,17,1,1491.3651943206787,1491.361141204834,951,1
76,quadbright,23.0,23,1,519.8898315429688,519.8879241943359,1330,1
77,quadbright,24.0,23,1,659.8141193389893,659.8131656646729,1050,1
78,quadbright,25.0,23,1,634.350061416626,634.3479156494141,850,1
79,quadbright,26.0,17,0,855.7980060577393,855.7960987091064,1319,1
80,quadbright,27.0,23,1,650.928258895874,650.9261131286621,1129,1
81,quadbright,28.0,23,1,1001.3308525085449,1001.3270378112793,895,1
82,quadbright,29.0,17,0,914.1533374786377,914.1523838043213,1335,1
83,quadbright,30.0,17,0,915.4009819030762,915.3997898101807,1301,1
84,quadbright,5.0,17,1,99.0908145904541,758.3849430084229,833,1
85,quadbright,6.0,17,1,132.62367248535156,723.4008312225342,1318,1
86,quadbright,7.0,17,1,65.5829906463623,537.8401279449463,1484,1
87,quadbright,8.0,17,1,832.611083984375,832.6079845428467,1143,1
88,quadbright,9.0,17,1,230.3030490875244,757.5922012329102,1111,1
89,quadbright,10.0,17,1,923.8088130950928,923.8018989562988,1437,1
90,quadbright,11.0,17,1,700.7460594177246,700.7379531860352,979,1
91,quadbright,12.0,17,1,1054.6269416809082,1054.6228885650635,1130,1
92,quadbright,13.0,17,1,764.1489505767822,764.1470432281494,962,1
93,quadbright,14.0,23,1,692.6300525665283,692.6262378692627,1422,1
94,quadbright,15.0,17,1,693.5627460479736,693.5617923736572,886,1
95,quadbright,16.0,17,1,1164.834976196289,1164.829969406128,916,1
96,quadbright,17.0,17,1,693.3891773223877,693.3860778808594,1157,1
97,quadbright,18.0,17,1,680.3851127624512,680.3851127624512,835,1
98,quadbright,19.0,17,1,692.3801898956299,692.3739910125732,1500,1
99,quadbright,20.0,17,1,1054.3041229248047,1054.30006980896,980,1
100,quadbright,21.0,17,0,1198.8751888275146,1198.8699436187744,874,1
101,quadbright,22.0,17,1,663.0771160125732,663.0730628967285,1180,1
102,quadbright,23.0,23,1,755.3470134735107,755.3427219390869,1164,1
103,quadbright,24.0,20,1,694.6640014648438,694.6609020233154,816,1
104,quadbright,25.0,20,1,591.5591716766357,591.5529727935791,1240,1
105,quadbright,26.0,20,1,880.638837814331,880.6381225585938,1075,1
106,quadbright,27.0,20,1,624.9971389770508,624.995231628418,1024,1
107,quadbright,28.0,20,1,530.3177833557129,530.3168296813965,1154,1
108,quadbright,29.0,20,1,924.4959354400635,924.4930744171143,888,1
109,quadbright,30.0,20,1,666.5477752685547,666.54372215271,928,1
110,quadbright,5.0,14,1,66.30301475524902,602.8220653533936,999,1
111,quadbright,6.0,14,1,99.05314445495605,758.7320804595947,1358,1
112,quadbright,7.0,14,1,99.79701042175293,690.054178237915,1348,1
113,quadbright,8.0,14,1,130.25474548339844,728.0619144439697,1259,1
114,quadbright,9.0,14,1,98.65713119506836,1022.98903465271,948,0
115,quadbright,9.0,14,1,689.9919509887695,689.9888515472412,1459,1
116,quadbright,10.0,14,1,693.2737827301025,693.2728290557861,852,1
117,quadbright,11.0,14,1,696.5639591217041,696.5608596801758,1229,1
118,quadbright,12.0,14,1,637.7899646759033,637.7880573272705,1436,1
119,quadbright,13.0,14,1,537.7030372619629,537.693977355957,855,1
120,quadbright,14.0,21,1,659.168004989624,659.1649055480957,1406,1
121,quadbright,15.0,14,1,682.4789047241211,682.4789047241211,826,1
122,quadbright,16.0,14,1,759.5288753509521,759.526252746582,1306,1
123,quadbright,17.0,14,1,597.944974899292,597.9430675506592,1150,1
124,quadbright,18.0,14,0,1066.7920112609863,1066.7879581451416,993,1
125,quadbright,19.0,14,1,667.9050922393799,667.9010391235352,1252,1
126,quadbright,20.0,14,1,691.3080215454102,691.3042068481445,1066,1
127,quadbright,21.0,20,1,627.5479793548584,627.5460720062256,1388,0
128,quadbright,21.0,20,0,928.2360076904297,928.2341003417969,841,1
129,quadbright,22.0,14,1,881.6747665405273,881.67405128479,1066,1
130,quadbright,23.0,21,1,603.1687259674072,603.165864944458,943,1
131,quadbright,24.0,20,1,550.3606796264648,550.3597259521484,1207,1
132,quadbright,25.0,20,1,991.2917613983154,991.2889003753662,1433,1
133,quadbright,26.0,20,1,866.4939403533936,866.4920330047607,1499,1
134,quadbright,27.0,20,1,601.3288497924805,601.3240814208984,1415,1
135,quadbright,28.0,20,1,855.4308414459229,855.4239273071289,1209,1
136,quadbright,29.0,20,1,855.9508323669434,855.9482097625732,1134,1
137,quadbright,30.0,20,1,767.9369449615479,767.9309844970703,1056,1
138,quadbright,5.0,14,1,98.31404685974121,660.0852012634277,1063,1
139,quadbright,6.0,14,1,97.11408615112305,593.2440757751465,1162,1
140,quadbright,7.0,14,1,99.55501556396484,604.2959690093994,1425,1
141,quadbright,8.0,14,1,99.78508949279785,692.1238899230957,1294,1
142,quadbright,9.0,14,1,99.58982467651367,528.8677215576172,879,1
143,quadbright,10.0,14,1,794.166088104248,794.1591739654541,1424,1
144,quadbright,11.0,14,1,695.7290172576904,695.7278251647949,1161,1
145,quadbright,12.0,14,1,665.8360958099365,665.8329963684082,1272,1
146,quadbright,13.0,14,0,1088.860273361206,1088.8571739196777,1500,1
147,quadbright,14.0,21,1,648.0529308319092,648.0519771575928,1074,1
148,quadbright,15.0,14,1,561.4190101623535,561.4180564880371,1424,1
149,quadbright,16.0,14,1,858.6068153381348,858.6030006408691,1191,1
150,quadbright,17.0,14,1,756.5391063690186,756.5350532531738,1183,1
151,quadbright,18.0,17,1,760.8258724212646,760.8246803283691,1140,1
152,quadbright,19.0,14,0,758.6677074432373,758.6669921875,1127,1
153,quadbright,20.0,14,1,756.0629844665527,756.0598850250244,844,1
154,quadbright,21.0,23,1,560.5471134185791,560.5461597442627,944,1
155,quadbright,22.0,14,1,1350.89111328125,1350.8849143981934,842,1
156,quadbright,23.0,21,1,693.1672096252441,693.1650638580322,1499,1
157,quadbright,24.0,17,1,791.0640239715576,791.0590171813965,959,1
158,quadbright,25.0,17,1,697.861909866333,697.8569030761719,939,1
159,quadbright,26.0,18,1,681.6403865814209,681.6391944885254,1458,1
160,quadbright,27.0,17,0,856.6691875457764,856.6641807556152,1174,1
161,quadbright,28.0,17,1,792.0999526977539,792.0949459075928,1083,1
162,quadbright,29.0,18,1,558.8269233703613,558.8259696960449,1252,1
163,quadbright,30.0,18,1,752.3760795593262,752.3748874664307,1290,1
164,quadbright,5.0,11,1,97.89109230041504,658.0979824066162,964,1
165,quadbright,6.0,11,1,593.9900875091553,593.9891338348389,1025,1
166,quadbright,7.0,11,1,100.25596618652344,790.0118827819824,828,1
167,quadbright,8.0,11,1,693.6390399932861,693.6378479003906,1445,1
168,quadbright,9.0,11,1,98.9522933959961,692.9171085357666,1096,1
169,quadbright,10.0,11,1,64.93902206420898,515.613317489624,973,0
170,quadbright,10.0,11,1,658.745288848877,658.7400436401367,1095,1
171,quadbright,11.0,11,1,657.7498912811279,657.7479839324951,1297,1
172,quadbright,12.0,11,1,515.7489776611328,515.7482624053955,859,1
173,quadbright,13.0,17,1,789.8938655853271,789.8900508880615,967,1
174,quadbright,14.0,20,1,789.8778915405273,789.8769378662109,1261,1
175,quadbright,15.0,11,1,946.6769695281982,946.6760158538818,1334,1
176,quadbright,16.0,11,1,801.5961647033691,801.5880584716797,1295,1
177,quadbright,17.0,11,1,792.1531200408936,792.1509742736816,995,1
178,quadbright,18.0,17,1,889.7461891174316,889.7430896759033,1257,1
179,quadbright,19.0,17,1,660.1178646087646,660.1119041442871,1280,1
180,quadbright,20.0,11,1,659.531831741333,659.5308780670166,1068,1
181,quadbright,21.0,23,1,1000.1819133758545,1000.1800060272217,933,1
182,quadbright,22.0,11,0,1083.8210582733154,1083.8170051574707,871,1
183,quadbright,23.0,20,0,1188.8360977172852,1188.8329982757568,872,1
184,quadbright,24.0,17,1,850.6908416748047,850.6898880004883,1125,1
185,quadbright,25.0,17,1,656.7678451538086,656.7630767822266,1183,1
186,quadbright,26.0,18,1,989.5460605621338,989.5420074462891,1238,1
187,quadbright,27.0,20,1,592.8881168365479,592.8850173950195,1087,1
188,quadbright,28.0,17,1,782.6681137084961,782.6681137084961,904,1
189,quadbright,29.0,18,1,901.2928009033203,901.2911319732666,824,1
190,quadbright,30.0,18,1,791.2211418151855,791.2158966064453,1008,1
191,quadbright,5.0,11,1,99.29704666137695,683.4580898284912,1452,1
192,quadbright,6.0,11,1,99.21503067016602,659.9678993225098,854,1
193,quadbright,7.0,11,1,98.67310523986816,558.488130569458,968,1
194,quadbright,8.0,11,1,1087.8410339355469,1087.8381729125977,1132,1
195,quadbright,9.0,11,1,594.3889617919922,594.3880081176758,1327,1
196,quadbright,10.0,11,1,701.894998550415,701.8921375274658,1435,1
197,quadbright,11.0,11,0,1945.328950881958,1945.3260898590088,1202,1
198,quadbright,12.0,11,1,530.0960540771484,530.0931930541992,803,1
199,quadbright,13.0,17,1,594.5968627929688,594.5918560028076,943,1
200,quadbright,14.0,20,1,527.0729064941406,527.0688533782959,1353,1
201,quadbright,15.0,11,1,856.9297790527344,856.9269180297852,819,1
202,quadbright,16.0,11,1,792.748212814331,792.7429676055908,859,1
203,quadbright,17.0,11,0,1583.2629203796387,1583.258867263794,1188,1
204,quadbright,18.0,15,1,604.1231155395508,604.1209697723389,1027,1
205,quadbright,19.0,17,1,648.9741802215576,648.9729881286621,948,1
206,quadbright,20.0,11,0,723.1419086456299,723.1409549713135,1349,1
207,quadbright,21.0,21,1,665.0640964508057,665.0629043579102,933,1
208,quadbright,22.0,14,1,856.4229011535645,856.4190864562988,1164,1
209,quadbright,23.0,21,1,634.1629028320312,634.1609954833984,1173,1
210,quadbright,24.0,14,0,990.4489517211914,990.4429912567139,852,1
211,quadbright,25.0,14,1,715.827226638794,715.8260345458984,989,1
212,quadbright,26.0,17,1,659.5301628112793,659.5189571380615,1118,1
213,quadbright,27.0,20,1,751.2128353118896,751.2116432189941,803,1
214,quadbright,28.0,14,0,748.5380172729492,748.5370635986328,1219,1
215,quadbright,29.0,17,0,714.5810127258301,714.5791053771973,1382,1
216,quadbright,30.0,17,0,864.4506931304932,864.447832107544,1164,1
217,quadbright,5.0,8,1,66.33496284484863,769.9792385101318,813,1
218,quadbright,6.0,8,1,65.3989315032959,735.3808879852295,1369,1
219,quadbright,7.0,8,1,65.96684455871582,659.5079898834229,1455,1
220,quadbright,8.0,8,0,1054.5661449432373,1054.563045501709,999,1
221,quadbright,9.0,8,1,716.2318229675293,716.2308692932129,1189,1
222,quadbright,10.0,8,1,728.3008098602295,728.2998561859131,911,1
223,quadbright,11.0,14,1,549.6971607208252,549.6959686279297,1077,1
224,quadbright,12.0,8,1,979.6872138977051,979.6860218048096,1113,1
225,quadbright,13.0,15,1,593.285083770752,593.2819843292236,947,1
226,quadbright,14.0,18,1,726.2310981750488,726.2301445007324,807,1
227,quadbright,15.0,8,0,879.6460628509521,879.6451091766357,1238,1
228,quadbright,16.0,8,0,1176.9449710845947,1176.9437789916992,1461,1
229,quadbright,17.0,14,1,672.4560260772705,672.450065612793,1184,1
230,quadbright,18.0,15,0,934.3442916870117,934.340238571167,929,1
231,quadbright,19.0,15,0,791.2819385528564,791.2812232971191,1071,1
232,quadbright,20.0,14,0,759.8059177398682,759.800910949707,930,1
233,quadbright,21.0,21,0,670.3689098358154,670.3641414642334,843,1
234,quadbright,22.0,14,1,1189.706802368164,1189.7048950195312,1364,1
235,quadbright,23.0,21,1,698.4231472015381,698.4210014343262,1184,1
236,quadbright,24.0,17,1,698.7941265106201,698.7919807434082,855,1
237,quadbright,25.0,14,1,790.2116775512695,790.2047634124756,851,1
238,quadbright,26.0,17,1,757.8439712524414,757.8370571136475,1362,1
239,quadbright,27.0,18,1,790.3580665588379,790.355920791626,1300,1
240,quadbright,28.0,17,1,647.8931903839111,647.8919982910156,1355,1
241,quadbright,29.0,18,1,736.314058303833,736.3100051879883,1288,1
242,quadbright,30.0,18,0,790.8411026000977,790.8341884613037,1355,1
243,quadbright,5.0,8,1,67.92712211608887,833.8730335235596,905,1
244,quadbright,6.0,8,1,66.26200675964355,723.8509654998779,1024,1
245,quadbright,7.0,8,1,67.44503974914551,559.3957901000977,1185,1
246,quadbright,8.0,11,1,593.9490795135498,593.9469337463379,1113,1
247,quadbright,9.0,8,1,528.1178951263428,528.1147956848145,996,1
248,quadbright,10.0,8,0,913.0611419677734,913.060188293457,1476,1
249,quadbright,11.0,14,1,659.6951484680176,659.68918800354,1331,1
250,quadbright,12.0,8,0,760.0882053375244,760.0851058959961,966,1
251,quadbright,13.0,15,1,857.2320938110352,857.2311401367188,1213,1
252,quadbright,14.0,18,1,792.2029495239258,792.2017574310303,1405,1
253,quadbright,15.0,11,0,724.581241607666,724.574089050293,1272,1
254,quadbright,16.0,11,0,879.9059391021729,879.9049854278564,1185,1
255,quadbright,17.0,14,1,723.6709594726562,723.6669063568115,902,1
256,quadbright,18.0,17,0,1155.6270122528076,1155.6191444396973,1191,0
257,quadbright,18.0,17,1,824.1841793060303,824.1829872131348,874,1
258,quadbright,19.0,17,0,691.3580894470215,691.3533210754395,1179,1
259,quadbright,20.0,17,1,790.0850772857666,790.0819778442383,1486,1
260,quadbright,21.0,23,1,664.3507480621338,664.3466949462891,1200,1
261,quadbright,22.0,12,0,846.6470241546631,846.6460704803467,1186,1
262,quadbright,23.0,20,1,637.1269226074219,637.122631072998,1276,1
263,quadbright,24.0,17,0,1162.0008945465088,1161.9970798492432,1167,1
264,quadbright,25.0,11,1,1187.182903289795,1187.1790885925293,1056,1
265,quadbright,26.0,15,0,723.8678932189941,723.8659858703613,1371,1
266,quadbright,27.0,18,1,724.9019145965576,724.8971462249756,1378,1
267,quadbright,28.0,17,1,998.4431266784668,998.4402656555176,970,1
268,quadbright,29.0,18,1,726.0560989379883,726.05299949646,965,1
269,quadbright,30.0,20,1,859.0271472930908,859.0219020843506,1438,1
270,quadbright,5.0,5,1,66.14804267883301,790.7519340515137,1152,1
271,quadbright,6.0,5,0,63.06791305541992,822.411060333252,1197,1
272,quadbright,7.0,5,0,64.65601921081543,784.5990657806396,1324,1
273,quadbright,8.0,11,1,593.0542945861816,593.0511951446533,1018,1
274,quadbright,9.0,5,0,766.8590545654297,766.8542861938477,1216,1
275,quadbright,10.0,11,1,591.7649269104004,591.763973236084,1077,1
276,quadbright,11.0,12,1,594.2440032958984,594.2399501800537,1347,1
277,quadbright,12.0,11,1,482.943058013916,482.9418659210205,1249,1
278,quadbright,13.0,14,1,626.1193752288818,626.1100769042969,1241,1
279,quadbright,14.0,17,1,528.6493301391602,528.6471843719482,827,1
280,quadbright,15.0,14,1,946.0411071777344,946.040153503418,1003,1
281,quadbright,16.0,14,1,725.2917289733887,725.2848148345947,1258,1
282,quadbright,17.0,12,0,691.6830539703369,691.6790008544922,1122,0
283,quadbright,17.0,12,1,924.548864364624,924.5367050170898,1259,0
284,quadbright,17.0,12,1,1386.6779804229736,1386.6748809814453,1279,1
285,quadbright,18.0,17,0,720.2081680297852,720.2069759368896,1021,1
286,quadbright,19.0,18,0,693.8591003417969,693.8579082489014,905,1
287,quadbright,20.0,17,1,562.075138092041,562.0710849761963,1429,1
288,quadbright,21.0,23,1,790.3673648834229,790.3573513031006,1182,1
289,quadbright,22.0,14,1,856.3029766082764,856.30202293396,840,1
290,quadbright,23.0,20,1,593.5168266296387,593.5087203979492,1367,1
291,quadbright,24.0,18,1,692.521333694458,692.5191879272461,1499,1
292,quadbright,25.0,11,0,792.5450801849365,792.5400733947754,1073,1
293,quadbright,26.0,17,1,560.9171390533447,560.9161853790283,1344,1
294,quadbright,27.0,17,1,494.7628974914551,494.75979804992676,1045,1
295,quadbright,28.0,15,0,792.2060489654541,792.2050952911377,1138,1
296,quadbright,29.0,17,0,700.0510692596436,700.0439167022705,1389,1
297,quadbright,30.0,20,1,700.9351253509521,700.9332180023193,997,1
298,quadbright,5.0,5,1,65.73700904846191,735.8930110931396,1210,1
299,quadbright,6.0,8,1,66.06292724609375,956.3019275665283,952,1
300,quadbright,7.0,8,1,64.96191024780273,528.627872467041,815,1
301,quadbright,8.0,9,1,67.95191764831543,632.7557563781738,1456,1
302,quadbright,9.0,8,1,65.34409523010254,790.1303768157959,879,1
303,quadbright,10.0,11,1,626.8641948699951,626.8632411956787,1302,1
304,quadbright,11.0,12,1,593.3988094329834,593.397855758667,1128,1
305,quadbright,12.0,11,1,460.63899993896484,460.6349468231201,903,1
306,quadbright,13.0,14,1,494.69590187072754,494.6911334991455,949,1
307,quadbright,14.0,17,1,659.1780185699463,659.1739654541016,944,1
308,quadbright,15.0,14,0,715.3217792510986,715.3208255767822,1100,1
309,quadbright,16.0,14,1,627.3019313812256,627.3009777069092,1034,1
310,quadbright,17.0,12,1,523.6599445343018,523.644208908081,1163,1
311,quadbright,18.0,18,1,528.2187461853027,528.2177925109863,1219,1
312,quadbright,19.0,20,1,627.3341178894043,627.3319721221924,1217,1
313,quadbright,20.0,15,1,560.2860450744629,560.279130935669,1118,1
314,quadbright,21.0,22,1,484.2240810394287,484.2231273651123,931,1
315,quadbright,22.0,14,1,559.520959854126,559.514045715332,1212,1
316,quadbright,23.0,19,1,625.1189708709717,625.115156173706,1312,1
317,quadbright,24.0,18,1,626.7130374908447,626.7120838165283,875,1
318,quadbright,25.0,14,1,685.3868961334229,685.3859424591064,1200,1
319,quadbright,26.0,17,0,759.1612339019775,759.160041809082,816,1
320,quadbright,27.0,17,0,692.5151348114014,692.512035369873,817,1
321,quadbright,28.0,17,1,626.8181800842285,626.8119812011719,1420,1
322,quadbright,29.0,18,1,791.5740013122559,791.56494140625,1323,1
323,quadbright,30.0,19,0,800.9011745452881,800.8971214294434,1215,1
324,quadbright,5.0,2,1,66.08700752258301,935.7140064239502,818,1
325,quadbright,6.0,8,1,67.08693504333496,626.1818408966064,1205,1
326,quadbright,7.0,8,1,69.69404220581055,530.0579071044922,995,1
327,quadbright,8.0,9,1,67.43502616882324,559.6001148223877,1030,1
328,quadbright,9.0,8,1,97.77188301086426,498.1539249420166,1483,1
329,quadbright,10.0,9,1,254.13799285888672,616.9898509979248,961,1
330,quadbright,11.0,11,1,494.840145111084,494.8389530181885,1469,1
331,quadbright,12.0,9,1,691.0161972045898,691.0099983215332,1428,1
332,quadbright,13.0,12,0,758.5077285766602,758.5048675537109,996,1
333,quadbright,14.0,15,1,527.2607803344727,527.2529125213623,1343,1
334,quadbright,15.0,15,1,693.120002746582,693.1190490722656,1052,1
335,quadbright,16.0,12,1,789.2999649047852,789.2961502075195,1097,1
336,quadbright,17.0,11,1,626.5668869018555,626.5640258789062,1026,1
337,quadbright,18.0,18,1,460.45374870300293,460.4458808898926,1010,1
338,quadbright,19.0,20,1,626.0590553283691,626.0550022125244,1199,1
339,quadbright,20.0,15,1,592.9539203643799,592.951774597168,910,1
340,quadbright,21.0,22,1,461.2421989440918,461.23600006103516,1233,1
341,quadbright,22.0,13,0,897.9029655456543,897.9010581970215,1093,1
342,quadbright,23.0,19,1,528.1050205230713,528.0978679656982,1316,1
343,quadbright,24.0,17,1,754.4209957122803,754.4209957122803,1496,1
344,quadbright,25.0,14,1,462.0339870452881,462.0330333709717,1106,1
345,quadbright,26.0,18,0,1417.9420471191406,1417.9370403289795,1458,1
346,quadbright,27.0,18,1,832.7081203460693,832.7023983001709,1190,1
347,quadbright,28.0,17,1,1088.456153869629,1088.454008102417,897,1
348,quadbright,29.0,18,1,620.4321384429932,620.4311847686768,946,1
349,quadbright,30.0,20,1,758.8069438934326,758.8059902191162,967,1
350,quadbright,5.0,2,0,66.24317169189453,1056.5249919891357,1482,1
351,quadbright,6.0,6,1,98.91200065612793,759.6259117126465,1468,1
352,quadbright,7.0,6,1,65.53983688354492,649.3740081787109,1094,1
353,quadbright,8.0,8,0,756.871223449707,756.8690776824951,1151,1
354,quadbright,9.0,6,0,1054.3417930603027,1054.3348789215088,992,1
355,quadbright,10.0,9,1,627.0368099212646,627.0349025726318,1445,1
356,quadbright,11.0,11,1,521.9321250915527,521.928071975708,837,1
357,quadbright,12.0,9,1,925.0810146331787,925.0798225402832,1426,1
358,quadbright,13.0,14,1,692.2101974487305,692.2082901000977,1445,1
359,quadbright,14.0,15,1,528.2571315765381,528.2528400421143,1329,1
360,quadbright,15.0,15,1,616.0078048706055,616.0068511962891,1316,1
361,quadbright,16.0,12,0,828.6383152008057,828.6309242248535,1121,1
362,quadbright,17.0,11,1,560.9488487243652,560.9481334686279,1335,1
363,quadbright,18.0,17,1,595.6223011016846,595.6182479858398,1056,1
364,quadbright,19.0,19,1,526.2410640716553,526.2398719787598,860,1
365,quadbright,20.0,14,1,447.7808475494385,447.77989387512207,1353,1
366,quadbright,21.0,21,1,628.3998489379883,628.3960342407227,1008,1
367,quadbright,22.0,14,1,747.8909492492676,747.8899955749512,956,1
368,quadbright,23.0,18,1,701.9619941711426,701.9550800323486,1071,1
369,quadbright,24.0,17,1,956.0010433197021,955.9981822967529,1494,1
370,quadbright,25.0,12,1,693.1469440460205,693.1459903717041,1403,1
371,quadbright,26.0,19,1,824.3341445922852,824.3269920349121,1223,1
372,quadbright,27.0,18,1,683.8588714599609,683.8579177856445,1372,1
373,quadbright,28.0,16,1,658.289909362793,658.2860946655273,1086,1
374,quadbright,29.0,17,1,749.6798038482666,749.6788501739502,1454,1
375,quadbright,30.0,20,1,955.3239345550537,955.3220272064209,1496,1
376,quadbright,5.0,5,1,66.78390502929688,1066.6780471801758,926,1
377,quadbright,6.0,6,1,68.91703605651855,584.9800109863281,926,1
378,quadbright,7.0,6,1,529.1547775268555,529.1478633880615,1080,1
379,quadbright,8.0,9,1,662.5101566314697,662.5070571899414,1307,1
380,quadbright,9.0,8,1,516.6537761688232,516.6530609130859,1057,1
381,quadbright,10.0,8,0,757.807731628418,757.8029632568359,1430,1
382,quadbright,11.0,9,1,533.9260101318359,533.9241027832031,1473,1
383,quadbright,12.0,8,0,65.0789737701416,889.9719715118408,1189,1
384,quadbright,13.0,14,1,464.3740653991699,464.3702507019043,1189,1
385,quadbright,14.0,14,1,600.5382537841797,600.5330085754395,1127,1
386,quadbright,15.0,14,1,628.8669109344482,628.8597583770752,1035,1
387,quadbright,16.0,14,1,470.60108184814453,470.5979824066162,972,1
388,quadbright,17.0,9,1,888.8030052185059,888.7989521026611,1382,1
389,quadbright,18.0,17,1,691.9581890106201,691.9529438018799,1017,1
390,quadbright,19.0,19,1,527.3442268371582,527.3420810699463,1190,1
391,quadbright,20.0,14,1,691.5750503540039,691.5688514709473,1257,1
392,quadbright,21.0,21,1,453.510046005249,453.5088539123535,839,1
393,quadbright,22.0,14,1,766.7050361633301,766.697883605957,1206,1
394,quadbright,23.0,18,1,528.331995010376,528.3279418945312,1011,1
395,quadbright,24.0,16,1,516.232967376709,516.2322521209717,1076,1
396,quadbright,25.0,12,0,990.1270866394043,990.1261329650879,1009,1
397,quadbright,26.0,19,0,658.8859558105469,658.8852405548096,1127,1
398,quadbright,27.0,17,1,604.0439605712891,604.0401458740234,882,1
399,quadbright,28.0,16,1,880.5909156799316,880.5897235870361,1338,1
400,quadbright,29.0,17,0,921.360969543457,921.3588237762451,867,1
