trial,condition,eccentricity,magnitude,correct,srt_ms,keyboard_rt_ms,pre_change_ms,valid
1,control,5.0,20,1,132.02476501464844,856.3437461853027,1260,1
2,control,6.0,20,1,66.38002395629883,856.3368320465088,1321,1
3,control,7.0,20,1,131.37388229370117,793.3950424194336,807,1
4,control,8.0,20,1,66.65492057800293,857.0899963378906,914,1
5,control,9.0,20,1,790.949821472168,790.942907333374,899,1
6,control,10.0,20,1,130.30600547790527,725.2368927001953,932,1
7,control,11.0,20,1,672.3020076751709,672.2970008850098,840,1
8,control,12.0,20,1,681.5640926361084,681.5629005432129,1161,1
9,control,13.0,20,1,546.6318130493164,546.630859375,1201,1
10,control,14.0,20,1,459.09667015075684,459.0938091278076,895,1
11,control,15.0,20,1,595.9601402282715,595.9570407867432,1207,1
12,control,16.0,20,1,661.3969802856445,661.3938808441162,824,1
13,control,17.0,20,1,660.25710105896,660.2520942687988,1056,1
14,control,18.0,20,1,455.5647373199463,455.5637836456299,969,1
15,control,19.0,20,1,725.3241539001465,725.322961807251,1019,1
16,control,20.0,20,1,583.0469131469727,583.0459594726562,1471,1
17,control,21.0,20,1,590.0936126708984,590.0897979736328,1256,1
18,control,22.0,20,1,593.703031539917,593.6939716339111,1339,1
19,control,23.0,20,1,789.466142654419,789.463996887207,1185,1
20,control,24.0,20,1,658.9488983154297,658.9407920837402,957,1
21,control,25.0,20,1,703.214168548584,703.2091617584229,958,1
22,control,26.0,20,1,824.8350620269775,824.8281478881836,1173,1
23,control,27.0,20,1,895.5032825469971,895.5011367797852,1327,1
24,control,28.0,20,1,726.2938022613525,726.2928485870361,1480,0
25,control,28.0,20,1,692.5580501556396,692.5570964813232,1068,1
26,control,29.0,20,1,625.9911060333252,625.9891986846924,918,1
27,control,30.0,20,0,1023.6477851867676,1023.6468315124512,1044,1
28,control,5.0,20,1,132.90119171142578,723.8612174987793,1209,1
29,control,6.0,20,1,73.93813133239746,535.5560779571533,1442,1
30,control,7.0,20,1,65.88268280029297,593.695878982544,1148,1
31,control,8.0,20,1,66.9710636138916,660.1710319519043,955,1
32,control,9.0,20,1,64.0559196472168,592.055082321167,825,1
33,control,10.0,20,1,602.2040843963623,602.1990776062012,1211,1
34,control,11.0,20,1,656.8601131439209,656.8539142608643,1464,1
35,control,12.0,20,1,626.3859272003174,626.3837814331055,1294,1
36,control,13.0,20,1,684.9780082702637,684.9772930145264,1452,1
37,control,14.0,20,1,658.7848663330078,658.7808132171631,1108,1
38,control,15.0,20,1,856.0538291931152,856.0512065887451,832,1
39,control,16.0,20,1,992.6249980926514,992.6221370697021,817,1
40,control,17.0,20,1,616.9848442077637,616.9836521148682,1179,1
41,control,18.0,20,1,594.825029373169,594.8231220245361,1282,1
42,control,19.0,20,1,593.6429500579834,593.6410427093506,1465,1
43,control,20.0,20,1,582.0579528808594,582.0567607879639,954,1
44,control,21.0,20,1,659.5709323883057,659.56711769104,995,1
45,control,22.0,20,1,525.0790119171143,525.0749588012695,1140,1
46,control,23.0,20,1,692.6147937774658,692.6078796386719,1184,1
47,control,24.0,20,1,1812.1330738067627,1812.1299743652344,963,1
48,control,25.0,20,1,594.7220325469971,594.7170257568359,1402,1
49,control,26.0,20,0,1285.5181694030762,1285.5138778686523,929,1
50,control,27.0,20,1,1318.4871673583984,1318.486213684082,1189,1
51,control,28.0,20,1,1056.5838813781738,1056.5738677978516,1021,1
52,control,29.0,20,1,761.5270614624023,761.5232467651367,1211,1
53,control,30.0,23,0,780.2000045776367,780.1990509033203,1482,1
54,control,5.0,17,1,65.78612327575684,591.2871360778809,1472,1
55,control,6.0,17,1,65.46807289123535,526.5820026397705,973,1
56,control,7.0,17,1,595.3588485717773,595.3516960144043,1139,1
57,control,8.0,17,1,65.80781936645508,395.6418037414551,1106,1
58,control,9.0,17,1,988.1289005279541,988.1248474121094,1480,1
59,control,10.0,17,1,526.8449783325195,526.8368721008301,971,1
60,control,11.0,17,1,66.2238597869873,593.1861400604248,942,1
61,control,12.0,17,1,567.4970149993896,567.4929618835449,1350,0
62,control,12.0,17,1,538.7740135192871,538.7699604034424,1323,1
63,control,13.0,17,1,527.5230407714844,527.522087097168,1138,1
64,control,14.0,17,1,858.6099147796631,858.6061000823975,1432,1
65,control,15.0,17,1,728.7211418151855,728.7192344665527,1329,1
66,control,16.0,17,0,1010.551929473877,1010.5500221252441,1252,1
67,control,17.0,17,1,703.8171291351318,703.8130760192871,923,1
68,control,18.0,17,1,633.3911418914795,633.3880424499512,1121,1
69,control,19.0,17,1,527.5721549987793,527.5671482086182,1247,1
70,control,20.0,17,1,527.5230407714844,527.522087097168,1447,1
71,control,21.0,17,1,680.1860332489014,680.185079574585,929,1
72,control,22.0,17,1,623.3940124511719,623.3899593353271,1098,1
73,control,23.0,17,1,529.0381908416748,529.0300846099854,1454,1
74,control,24.0,17,1,724.7788906097412,724.7741222381592,1033,1
75,control,25.0,17,1,583.1112861633301,583.1103324890137,1267,1
76,control,26.0,23,1,1129.6021938323975,1129.5969486236572,833,1
77,control,27.0,17,1,779.426097869873,779.4239521026611,941,1
78,control,28.0,17,1,723.8099575042725,723.8037586212158,1072,1
79,control,29.0,17,1,669.8780059814453,669.8741912841797,1132,1
80,control,30.0,26,1,594.2590236663818,594.2578315734863,1348,1
81,control,5.0,17,1,66.05815887451172,392.59910583496094,1092,1
82,control,6.0,17,1,65.7508373260498,493.6180114746094,996,1
83,control,7.0,17,1,120.49984931945801,548.4127998352051,1195,1
84,control,8.0,17,1,757.1549415588379,757.1489810943604,1206,1
85,control,9.0,17,1,66.03598594665527,461.6239070892334,1166,1
86,control,10.0,17,1,528.1250476837158,528.1238555908203,1232,1
87,control,11.0,17,1,534.2702865600586,534.2671871185303,1185,1
88,control,12.0,17,1,626.9009113311768,626.8959045410156,1110,0
89,control,12.0,17,1,493.36886405944824,493.3629035949707,1478,1
90,control,13.0,17,1,585.975170135498,585.9742164611816,1035,1
91,control,14.0,17,1,648.4270095825195,648.4260559082031,854,1
92,control,15.0,17,1,473.3109474182129,473.3090400695801,973,0
93,control,15.0,17,1,625.1459121704102,625.1437664031982,1289,1
94,control,16.0,20,1,803.1160831451416,803.1120300292969,1429,1
95,control,17.0,17,1,794.4369316101074,794.4331169128418,1065,1
96,control,18.0,17,1,661.5948677062988,661.5939140319824,879,1
97,control,19.0,17,1,527.2300243377686,527.2221565246582,1479,1
98,control,20.0,17,1,791.0149097442627,791.0020351409912,864,1
99,control,21.0,17,1,592.8587913513184,592.8540229797363,1205,1
100,control,22.0,17,1,591.2189483642578,591.2158489227295,942,1
101,control,23.0,17,0,1250.8089542388916,1250.8080005645752,1169,1
102,control,24.0,17,1,580.0769329071045,580.0759792327881,1424,1
103,control,25.0,17,1,978.0762195587158,978.0752658843994,921,1
104,control,26.0,23,1,1185.2376461029053,1185.2350234985352,1107,1
105,control,27.0,17,1,889.4667625427246,889.4641399383545,1195,1
106,control,28.0,17,1,648.4951972961426,648.4940052032471,1234,1
107,control,29.0,17,1,823.3652114868164,823.3599662780762,1123,0
108,control,29.0,17,0,1087.8078937530518,1087.8007411956787,906,1
109,control,30.0,26,1,659.7797870635986,659.7771644592285,1014,1
110,control,5.0,14,1,167.57464408874512,627.5069713592529,1439,1
111,control,6.0,14,1,64.99290466308594,527.587890625,1285,1
112,control,7.0,14,1,198.8699436187744,561.3081455230713,1242,1
113,control,8.0,14,1,283.6740016937256,547.8708744049072,858,1
114,control,9.0,14,1,823.7969875335693,823.793888092041,1471,0
115,control,9.0,14,1,99.27487373352051,671.6759204864502,991,1
116,control,10.0,14,1,726.0558605194092,726.0549068450928,1494,1
117,control,11.0,14,1,167.18387603759766,528.2869338989258,1370,1
118,control,12.0,14,1,625.7278919219971,625.7238388061523,938,1
119,control,13.0,14,1,505.748987197876,505.74707984924316,1288,1
120,control,14.0,14,1,595.4740047454834,595.4692363739014,1153,1
121,control,15.0,14,1,593.6009883880615,593.6000347137451,901,1
122,control,16.0,20,1,495.1627254486084,495.161771774292,1349,1
123,control,17.0,14,1,593.3172702789307,593.3120250701904,1136,1
124,control,18.0,14,1,592.9348468780518,592.9310321807861,1498,1
125,control,19.0,14,1,494.2059516906738,494.2007064819336,1201,1
126,control,20.0,14,1,495.3417778015137,495.34082412719727,1287,1
127,control,21.0,14,1,492.39611625671387,492.39301681518555,1256,1
128,control,22.0,14,1,703.5319805145264,703.528881072998,945,0
129,control,22.0,14,1,791.8310165405273,791.8272018432617,949,1
130,control,23.0,20,1,593.2989120483398,593.2967662811279,880,1
131,control,24.0,14,1,989.901065826416,989.896297454834,1186,0
132,control,24.0,14,1,594.2840576171875,594.2831039428711,870,1
133,control,25.0,14,1,491.8100833892822,491.8091297149658,926,1
134,control,26.0,21,1,494.1110610961914,494.10414695739746,1101,1
135,control,27.0,14,1,890.5820846557617,890.5820846557617,999,1
136,control,28.0,14,1,693.382978439331,693.3789253234863,936,1
137,control,29.0,20,1,704.1027545928955,704.0989398956299,957,1
138,control,30.0,23,1,593.4550762176514,593.454122543335,1062,1
139,control,5.0,14,1,93.58906745910645,496.5691566467285,1468,1
140,control,6.0,14,1,106.42600059509277,601.3069152832031,880,1
141,control,7.0,14,1,99.14231300354004,507.0810317993164,856,0
142,control,7.0,14,1,98.36196899414062,393.6939239501953,1254,1
143,control,8.0,14,1,99.14803504943848,492.45715141296387,1348,1
144,control,9.0,14,1,99.20787811279297,495.36585807800293,1360,1
145,control,10.0,14,1,99.13015365600586,493.29495429992676,1260,1
146,control,11.0,14,1,98.74486923217773,491.09578132629395,1382,1
147,control,12.0,14,1,493.76821517944336,493.76392364501953,834,1
148,control,13.0,14,1,593.6808586120605,593.6760902404785,1074,1
149,control,14.0,14,1,498.7671375274658,498.765230178833,1331,1
150,control,15.0,14,1,493.37291717529297,493.366003036499,1267,1
151,control,16.0,18,1,494.6732521057129,494.6722984313965,991,1
152,control,17.0,14,1,486.5150451660156,486.5140914916992,1329,1
153,control,18.0,14,1,502.51269340515137,502.50959396362305,1013,1
154,control,19.0,14,1,426.3420104980469,426.33700370788574,1170,1
155,control,20.0,14,1,495.84102630615234,495.83911895751953,1293,1
156,control,21.0,14,1,601.5129089355469,601.510763168335,1199,1
157,control,22.0,14,1,494.01307106018066,494.00782585144043,1454,1
158,control,23.0,20,1,595.9701538085938,595.9692001342773,1408,1
159,control,24.0,14,1,505.4762363433838,505.4740905761719,1456,1
160,control,25.0,14,1,703.5989761352539,703.5930156707764,843,1
161,control,26.0,21,0,484.4472408294678,484.44628715515137,1349,1
162,control,27.0,14,1,626.4572143554688,626.4550685882568,1232,1
163,control,28.0,14,0,934.1700077056885,934.1659545898438,823,1
164,control,29.0,20,1,595.207929611206,595.2041149139404,884,1
165,control,30.0,23,1,583.4641456604004,583.4629535675049,1244,1
166,control,5.0,11,1,99.43819046020508,491.0621643066406,965,1
167,control,6.0,11,1,99.08485412597656,396.38781547546387,1327,1
168,control,7.0,11,1,493.4248924255371,493.4210777282715,1164,1
169,control,8.0,11,1,98.70195388793945,495.7618713378906,993,1
170,control,9.0,11,1,384.2742443084717,384.2732906341553,934,1
171,control,10.0,11,1,504.43482398986816,504.43220138549805,877,1
172,control,11.0,11,1,494.107723236084,494.1060543060303,1143,1
173,control,12.0,11,0,1275.2482891082764,1275.2470970153809,1364,1
174,control,13.0,11,1,625.9012222290039,625.8981227874756,824,1
175,control,14.0,11,1,521.6641426086426,521.6629505157471,1369,0
176,control,14.0,11,1,492.9180145263672,492.91372299194336,1218,1
177,control,15.0,11,1,594.3222045898438,594.3212509155273,900,1
178,control,16.0,18,1,495.0120449066162,495.0120449066162,1146,1
179,control,17.0,11,1,792.578935623169,792.5739288330078,1298,1
180,control,18.0,11,1,492.9041862487793,492.8932189941406,1461,1
181,control,19.0,11,1,493.70598793029785,493.701696395874,1089,1
182,control,20.0,11,1,560.1580142974854,560.1539611816406,1383,1
183,control,21.0,11,1,916.3250923156738,916.3241386413574,1372,1
184,control,22.0,11,1,498.14510345458984,498.1420040130615,864,1
185,control,23.0,18,1,495.5880641937256,495.58210372924805,1360,1
186,control,24.0,11,0,933.0878257751465,933.0737590789795,1475,1
187,control,25.0,11,1,624.4080066680908,624.4039535522461,909,1
188,control,26.0,23,1,704.3499946594238,704.3459415435791,1220,1
189,control,27.0,11,0,1010.7698440551758,1010.7688903808594,814,1
190,control,28.0,17,1,1291.5830612182617,1291.5761470794678,1383,1
191,control,29.0,18,0,1308.6142539978027,1308.6142539978027,1436,1
192,control,30.0,20,1,592.738151550293,592.7338600158691,1430,1
193,control,5.0,11,1,98.94490242004395,494.84705924987793,989,1
194,control,6.0,11,1,99.60603713989258,494.3509101867676,1260,1
195,control,7.0,11,1,98.79922866821289,604.154109954834,1325,1
196,control,8.0,11,1,99.38287734985352,597.4948406219482,986,1
197,control,9.0,11,1,104.75301742553711,503.41105461120605,1080,1
198,control,10.0,11,1,492.40708351135254,492.3999309539795,957,1
199,control,11.0,11,1,494.50016021728516,494.49896812438965,1295,1
200,control,12.0,14,1,483.61968994140625,483.61873626708984,1331,1
201,control,13.0,11,1,498.3839988708496,498.3808994293213,1101,1
202,control,14.0,11,1,495.47600746154785,495.471715927124,863,1
203,control,15.0,11,1,506.21700286865234,506.2131881713867,1123,1
204,control,16.0,17,1,495.8300590515137,495.82910537719727,1261,1
205,control,17.0,11,1,603.1081676483154,603.1041145324707,1436,1
206,control,18.0,11,1,493.79801750183105,493.7927722930908,937,1
207,control,19.0,11,0,1516.921043395996,1516.9179439544678,856,1
208,control,20.0,11,1,594.2656993865967,594.2647457122803,1260,1
209,control,21.0,11,1,889.5268440246582,889.5208835601807,1147,1
210,control,22.0,11,1,593.5821533203125,593.5750007629395,817,1
211,control,23.0,18,1,599.9679565429688,599.963903427124,1008,1
212,control,24.0,14,1,791.517972946167,791.513204574585,1344,1
213,control,25.0,11,1,605.5841445922852,605.5762767791748,1338,1
214,control,26.0,23,1,591.3310050964355,591.3269519805908,1087,1
215,control,27.0,14,1,1001.7409324645996,1001.7390251159668,907,1
216,control,28.0,17,0,890.3038501739502,890.3028964996338,1345,1
217,control,29.0,20,1,790.8577919006348,790.8530235290527,1083,1
218,control,30.0,20,1,624.4170665740967,624.4082450866699,1156,1
219,control,5.0,8,1,99.4720458984375,594.0020084381104,1286,1
220,control,6.0,8,1,582.679033279419,582.6780796051025,1370,1
221,control,7.0,8,1,589.2741680145264,589.2653465270996,1488,1
222,control,8.0,8,1,198.70495796203613,792.5539016723633,838,1
223,control,9.0,8,1,197.9999542236328,495.58210372924805,1322,0
224,control,9.0,8,1,604.7370433807373,604.7332286834717,987,1
225,control,10.0,8,1,590.4219150543213,590.4181003570557,994,1
226,control,11.0,8,1,582.1628570556641,582.1619033813477,914,1
227,control,12.0,14,1,603.3222675323486,603.3179759979248,1103,1
228,control,13.0,8,1,496.4761734008789,496.4640140533447,1396,1
229,control,14.0,8,1,616.2939071655273,616.2929534912109,834,1
230,control,15.0,8,1,726.815938949585,726.8128395080566,1328,1
231,control,16.0,17,1,592.4019813537598,592.3960208892822,1016,1
232,control,17.0,8,1,1186.3768100738525,1186.3739490509033,965,1
233,control,18.0,8,1,803.5221099853516,803.5180568695068,1139,1
234,control,19.0,14,1,596.7090129852295,596.7068672180176,1373,1
235,control,20.0,8,1,624.1919994354248,624.1862773895264,1286,0
236,control,20.0,8,1,892.3630714416504,892.3571109771729,1073,1
237,control,21.0,8,1,890.7959461212158,890.794038772583,1440,1
238,control,22.0,8,1,681.6260814666748,681.6251277923584,1305,1
239,control,23.0,17,1,525.3019332885742,525.3012180328369,1209,1
240,control,24.0,14,1,601.0627746582031,601.0580062866211,889,1
241,control,25.0,8,1,824.8291015625,824.8231410980225,1264,1
242,control,26.0,22,1,625.6859302520752,625.6849765777588,1161,1
243,control,27.0,14,1,791.7540073394775,791.7518615722656,824,1
244,control,28.0,18,1,1429.9099445343018,1429.908275604248,861,1
245,control,29.0,20,0,1276.1321067810059,1276.130199432373,1191,1
246,control,30.0,17,0,791.8491363525391,791.8479442596436,1319,1
247,control,5.0,8,1,199.31507110595703,603.8899421691895,1292,1
248,control,6.0,8,0,198.6851692199707,1220.4501628875732,841,1
249,control,7.0,8,1,197.617769241333,525.9268283843994,922,1
250,control,8.0,8,1,626.3871192932129,626.3859272003174,926,1
251,control,9.0,8,1,195.07098197937012,625.0569820404053,885,1
252,control,10.0,8,1,197.89385795593262,625.8776187896729,1035,1
253,control,11.0,8,1,626.2111663818359,626.2092590332031,1083,1
254,control,12.0,12,1,525.3820419311523,525.378942489624,1000,1
255,control,13.0,8,1,604.1269302368164,604.1200160980225,880,1
256,control,14.0,8,1,1394.1025733947754,1394.0987586975098,1020,1
257,control,15.0,8,1,592.2412872314453,592.2360420227051,1285,1
258,control,16.0,15,1,625.0250339508057,625.0228881835938,1397,1
259,control,17.0,8,1,693.5789585113525,693.5770511627197,1413,1
260,control,18.0,8,1,680.5298328399658,680.5288791656494,1498,1
261,control,19.0,14,1,495.5739974975586,495.56684494018555,1137,0
262,control,19.0,14,1,595.0148105621338,595.0138568878174,1315,1
263,control,20.0,8,0,791.3179397583008,791.3157939910889,1342,1
264,control,21.0,8,1,594.1100120544434,594.1088199615479,1461,1
265,control,22.0,8,1,680.5589199066162,680.5589199066162,1362,1
266,control,23.0,17,1,584.7420692443848,584.740161895752,1226,1
267,control,24.0,12,1,1387.052059173584,1387.0489597320557,999,1
268,control,25.0,8,0,1188.4958744049072,1188.4939670562744,850,1
269,control,26.0,22,1,626.2660026550293,626.2650489807129,1061,0
270,control,26.0,22,1,678.7030696868896,678.7021160125732,915,1
271,control,27.0,12,1,704.7579288482666,704.7529220581055,941,1
272,control,28.0,18,0,879.4069290161133,879.4059753417969,1319,1
273,control,29.0,21,1,800.4517555236816,800.4488945007324,1146,1
274,control,30.0,20,1,595.2310562133789,595.2210426330566,1151,1
275,control,5.0,5,1,98.87385368347168,496.5066909790039,1304,0
276,control,5.0,5,1,97.28002548217773,592.2501087188721,1235,1
277,control,6.0,11,1,100.07810592651367,494.22597885131836,1346,1
278,control,7.0,5,1,195.6930160522461,594.0170288085938,808,1
279,control,8.0,5,1,198.62699508666992,1398.075819015503,946,1
280,control,9.0,5,1,592.667818069458,592.663049697876,1356,1
281,control,10.0,5,1,794.6481704711914,794.6469783782959,922,1
282,control,11.0,5,1,791.754961013794,791.7530536651611,857,1
283,control,12.0,12,1,689.2280578613281,689.2199516296387,1159,1
284,control,13.0,5,1,802.9758930206299,802.9696941375732,1336,1
285,control,14.0,5,0,789.5817756652832,789.5739078521729,1289,1
286,control,15.0,5,1,1020.8468437194824,1020.8430290222168,836,1
287,control,16.0,15,1,714.810848236084,714.8098945617676,1192,1
288,control,17.0,5,1,1712.0130062103271,1712.0110988616943,1414,1
289,control,18.0,5,1,791.8541431427002,791.8500900268555,927,1
290,control,19.0,12,1,594.977855682373,594.9509143829346,1223,1
291,control,20.0,11,1,702.9378414154053,702.9330730438232,1346,1
292,control,21.0,5,1,1595.6799983978271,1595.6759452819824,1332,1
293,control,22.0,5,0,794.0142154693604,794.0032482147217,1001,1
294,control,23.0,15,1,593.1558609008789,593.1510925292969,1419,1
295,control,24.0,12,1,594.3307876586914,594.3286418914795,1114,1
296,control,25.0,11,1,1091.921091079712,1091.9189453125,1337,1
297,control,26.0,21,1,998.9597797393799,998.9557266235352,1022,1
298,control,27.0,12,0,782.9060554504395,782.9039096832275,1029,0
299,control,27.0,12,0,824.1488933563232,824.1426944732666,1458,1
300,control,28.0,19,1,731.5082550048828,731.5030097961426,1034,1
301,control,29.0,21,0,704.87380027771,704.8611640930176,1120,1
302,control,30.0,20,0,1276.6368389129639,1276.6361236572266,1008,1
303,control,5.0,5,1,197.57080078125,1175.3489971160889,1378,1
304,control,6.0,11,1,198.86112213134766,593.89328956604,1078,1
305,control,7.0,5,1,207.4301242828369,623.9490509033203,1306,1
306,control,8.0,5,1,98.4797477722168,494.0190315246582,1367,1
307,control,9.0,5,1,101.29213333129883,596.4033603668213,1360,1
308,control,10.0,5,1,792.0899391174316,792.0839786529541,1428,1
309,control,11.0,5,1,605.93581199646,605.9207916259766,1460,1
310,control,12.0,11,1,901.9520282745361,901.9460678100586,848,1
311,control,13.0,5,1,789.647102355957,789.6389961242676,849,1
312,control,14.0,8,0,835.8087539672852,835.8058929443359,1346,1
313,control,15.0,5,1,583.8279724121094,583.8251113891602,1109,1
314,control,16.0,14,1,582.5479030609131,582.5471878051758,1149,1
315,control,17.0,5,1,879.0309429168701,879.0299892425537,1372,1
316,control,18.0,5,1,993.6268329620361,993.5908317565918,1241,1
317,control,19.0,12,1,603.3840179443359,603.3780574798584,1408,1
318,control,20.0,11,1,684.5130920410156,684.5121383666992,1345,1
319,control,21.0,5,0,1075.836181640625,1075.8352279663086,1147,1
320,control,22.0,8,0,923.0930805206299,923.0878353118896,1138,1
321,control,23.0,15,1,790.0409698486328,790.0347709655762,979,1
322,control,24.0,11,1,693.108081817627,693.0997371673584,1134,1
323,control,25.0,11,1,603.3411026000977,603.3289432525635,1374,1
324,control,26.0,21,1,1132.897138595581,1132.8930854797363,853,1
325,control,27.0,14,0,988.8782501220703,988.8761043548584,1017,1
326,control,28.0,19,0,1023.3330726623535,1023.3280658721924,1007,1
327,control,29.0,22,1,1176.2773990631104,1176.2773990631104,1431,1
328,control,30.0,21,1,922.9481220245361,922.9471683502197,1166,1
329,control,5.0,2,0,99.3509292602539,1607.7301502227783,1240,1
330,control,6.0,9,1,99.38597679138184,494.75693702697754,1178,1
331,control,7.0,2,1,1186.5110397338867,1186.5060329437256,1180,1
332,control,8.0,2,0,1508.7668895721436,1508.7659358978271,1496,1
333,control,9.0,2,0,1286.9749069213867,1286.970853805542,1092,1
334,control,10.0,2,0,1120.3639507293701,1120.3598976135254,1348,1
335,control,11.0,2,0,982.5437068939209,982.5427532196045,1135,1
336,control,12.0,11,1,592.728853225708,592.7267074584961,1273,1
337,control,13.0,2,0,781.714916229248,781.7139625549316,1425,1
338,control,14.0,11,1,494.62032318115234,494.61913108825684,1496,1
339,control,15.0,2,1,790.7400131225586,790.7350063323975,803,1
340,control,16.0,14,1,493.4380054473877,493.4380054473877,1488,1
341,control,17.0,2,0,788.4039878845215,788.3989810943604,1254,1
342,control,18.0,2,1,725.8291244506836,725.8281707763672,1368,1
343,control,19.0,11,1,526.763916015625,526.7610549926758,1085,0
344,control,19.0,11,1,593.1169986724854,593.1100845336914,1338,1
345,control,20.0,9,1,631.7136287689209,631.7088603973389,1354,1
346,control,21.0,8,1,691.1900043487549,691.1852359771729,1075,1
347,control,22.0,11,1,804.0728569030762,804.0649890899658,1104,1
348,control,23.0,14,1,590.3961658477783,590.3899669647217,1262,1
349,control,24.0,11,1,486.9561195373535,486.9551658630371,1203,1
350,control,25.0,9,0,912.4789237976074,912.477970123291,1469,1
351,control,26.0,20,1,595.29709815979,595.2939987182617,1466,1
352,control,27.0,15,0,801.969051361084,801.9669055938721,927,1
353,control,28.0,20,1,594.0213203430176,594.0191745758057,940,1
354,control,29.0,22,1,593.8398838043213,593.8389301300049,1166,1
355,control,30.0,21,1,495.1281547546387,495.12600898742676,1409,1
356,control,5.0,5,1,98.85406494140625,495.44310569763184,835,1
357,control,6.0,9,1,102.43916511535645,497.6670742034912,1065,1
358,control,7.0,2,1,93.22214126586914,1685.615062713623,1113,1
359,control,8.0,5,1,96.08030319213867,492.10500717163086,1005,1
360,control,9.0,5,1,494.81916427612305,494.81701850891113,935,1
361,control,10.0,5,1,593.3339595794678,593.3239459991455,888,1
362,control,11.0,5,1,790.7090187072754,790.7059192657471,1198,1
363,control,12.0,9,1,692.8079128265381,692.8060054779053,1136,1
364,control,13.0,5,0,1077.9240131378174,1077.9228210449219,992,1
365,control,14.0,11,1,691.5740966796875,691.5709972381592,1282,1
366,control,15.0,2,0,1417.7050590515137,1417.7029132843018,859,1
367,control,16.0,12,1,582.9508304595947,582.9508304595947,832,1
368,control,17.0,5,0,790.8751964569092,790.8720970153809,1260,1
369,control,18.0,2,1,1088.4089469909668,1088.4027481079102,1391,1
370,control,19.0,11,1,693.5570240020752,693.5539245605469,1307,1
371,control,20.0,9,1,484.98082160949707,484.97986793518066,1181,1
372,control,21.0,8,0,782.2151184082031,782.2141647338867,1391,1
373,control,22.0,11,1,593.0120944976807,593.0068492889404,1200,1
374,control,23.0,14,1,791.4643287658691,791.4602756500244,1086,1
375,control,24.0,9,1,792.9232120513916,792.9191589355469,985,1
376,control,25.0,11,1,681.4517974853516,681.4510822296143,1179,1
377,control,26.0,20,0,1217.7460193634033,1217.7340984344482,1168,1
378,control,27.0,17,1,885.2841854095459,885.282039642334,1406,1
379,control,28.0,20,1,525.291919708252,525.2809524536133,1295,0
380,control,28.0,20,1,530.832052230835,530.8289527893066,1116,1
381,control,29.0,21,1,585.841178894043,585.8402252197266,1222,1
382,control,30.0,20,1,484.62390899658203,484.6231937408447,1323,1
383,control,5.0,5,1,99.23887252807617,499.6638298034668,1125,1
384,control,6.0,8,1,99.43985939025879,396.53491973876953,1281,1
385,control,7.0,1,1,98.75297546386719,999.4049072265625,927,1
386,control,8.0,5,1,93.00422668457031,497.61319160461426,1111,1
387,control,9.0,5,1,493.24703216552734,493.24512481689453,984,1
388,control,10.0,5,1,692.5709247589111,692.5690174102783,1067,0
389,control,10.0,5,1,824.4490623474121,824.4380950927734,1396,1
390,control,11.0,5,1,1087.8043174743652,1087.7971649169922,1266,1
391,control,12.0,9,1,727.6110649108887,727.6089191436768,1411,1
392,control,13.0,8,1,711.85302734375,711.8520736694336,1305,0
393,control,13.0,8,0,1031.28981590271,1031.285047531128,871,1
394,control,14.0,9,0,824.7509002685547,824.7480392456055,1273,1
395,control,15.0,5,1,656.9249629974365,656.9211483001709,942,1
396,control,16.0,12,1,658.4370136260986,658.4329605102539,967,1
397,control,17.0,8,1,618.3500289916992,618.3490753173828,1035,1
398,control,18.0,1,0,924.4101047515869,924.4041442871094,1464,1
399,control,19.0,9,1,653.8341045379639,653.8329124450684,1279,1
400,control,20.0,8,0,725.9359359741211,725.9290218353271,975,1
1,quadbright,5.0,20,1,132.26699829101562,1090.4541015625,810,1
2,quadbright,6.0,20,1,728.6128997802734,728.6107540130615,1051,1
3,quadbright,7.0,20,1,592.6699638366699,592.6649570465088,1109,1
4,quadbright,8.0,20,1,589.7037982940674,589.7018909454346,1293,1
5,quadbright,9.0,20,1,61.8288516998291,679.4781684875488,1247,1
6,quadbright,10.0,20,1,198.44579696655273,726.3271808624268,1269,1
7,quadbright,11.0,20,1,464.94293212890625,464.94102478027344,1242,1
8,quadbright,12.0,20,1,461.92312240600586,461.92216873168945,1095,1
9,quadbright,13.0,20,1,264.34993743896484,671.2799072265625,828,1
10,quadbright,14.0,20,1,658.9279174804688,658.9219570159912,820,1
11,quadbright,15.0,20,1,791.4600372314453,791.456937789917,1250,1
12,quadbright,16.0,20,1,890.8727169036865,890.8710479736328,970,1
13,quadbright,17.0,20,1,757.0240497589111,757.0183277130127,1035,1
14,quadbright,18.0,20,1,677.4680614471436,677.4673461914062,859,1
15,quadbright,19.0,20,1,791.6750907897949,791.6710376739502,1356,1
16,quadbright,20.0,20,1,816.3421154022217,816.3411617279053,1154,1
17,quadbright,21.0,20,1,558.5250854492188,558.5200786590576,1470,1
18,quadbright,22.0,20,1,690.0908946990967,690.086841583252,1204,1
19,quadbright,23.0,20,1,669.4986820220947,669.4929599761963,1060,1
20,quadbright,24.0,20,1,793.8961982727051,793.8940525054932,920,1
21,quadbright,25.0,20,0,1066.606044769287,1066.5991306304932,879,1
22,quadbright,26.0,20,0,662.6749038696289,662.6739501953125,1299,1
23,quadbright,27.0,20,1,594.0430164337158,594.0418243408203,1092,0
24,quadbright,27.0,20,1,1187.3908042907715,1187.3888969421387,819,1
25,quadbright,28.0,20,0,1396.6338634490967,1396.6288566589355,1408,1
26,quadbright,29.0,20,1,989.8979663848877,989.8879528045654,1207,1
27,quadbright,30.0,20,0,1056.7021369934082,1056.6983222961426,1167,1
28,quadbright,5.0,20,1,66.01119041442871,726.0892391204834,1329,1
29,quadbright,6.0,20,1,129.78816032409668,527.4100303649902,1116,1
30,quadbright,7.0,20,1,593.9650535583496,593.9590930938721,1145,0
31,quadbright,7.0,20,1,66.5121078491211,539.4580364227295,909,1
32,quadbright,8.0,20,1,133.17513465881348,624.8331069946289,1253,1
33,quadbright,9.0,20,1,197.91603088378906,659.3198776245117,843,1
34,quadbright,10.0,20,1,667.6690578460693,667.6547527313232,1105,1
35,quadbright,11.0,20,1,394.60206031799316,394.59800720214844,1221,1
36,quadbright,12.0,20,1,594.109058380127,594.1030979156494,1309,1
37,quadbright,13.0,20,1,725.2910137176514,725.2840995788574,1471,1
38,quadbright,14.0,20,1,526.637077331543,526.6323089599609,1488,1
39,quadbright,15.0,20,1,527.3427963256836,527.3420810699463,1208,1
40,quadbright,16.0,20,1,527.4271965026855,527.4181365966797,1051,1
41,quadbright,17.0,20,1,526.4759063720703,526.4689922332764,1015,1
42,quadbright,18.0,20,1,955.4440975189209,955.4409980773926,835,1
43,quadbright,19.0,20,1,923.2070446014404,923.2032299041748,980,0
44,quadbright,19.0,20,1,527.9037952423096,527.8878211975098,1423,1
45,quadbright,20.0,20,1,584.6261978149414,584.6240520477295,940,1
46,quadbright,21.0,20,1,460.8950614929199,460.892915725708,1251,1
47,quadbright,22.0,20,1,737.0529174804688,737.0469570159912,1308,1
48,quadbright,23.0,20,1,659.6400737762451,659.6391201019287,1072,1
49,quadbright,24.0,20,1,795.4902648925781,795.4812049865723,1098,1
50,quadbright,25.0,23,0,791.2430763244629,791.2421226501465,1251,1
51,quadbright,26.0,23,0,1164.7558212280273,1164.7539138793945,986,1
52,quadbright,27.0,20,1,1121.8409538269043,1121.8349933624268,1157,1
53,quadbright,28.0,23,1,714.3239974975586,714.3228054046631,1231,1
54,quadbright,29.0,20,0,792.1929359436035,792.1879291534424,1081,1
55,quadbright,30.0,23,1,791.511058807373,791.511058807373,916,1
56,quadbright,5.0,17,1,131.5310001373291,557.8358173370361,1377,1
57,quadbright,6.0,17,1,725.5380153656006,725.5370616912842,1443,1
58,quadbright,7.0,17,1,132.9329013824463,659.430980682373,1403,1
59,quadbright,8.0,17,1,528.5489559173584,528.5470485687256,1001,1
60,quadbright,9.0,17,1,593.1189060211182,593.1119918823242,871,1
61,quadbright,10.0,17,1,595.1159000396729,595.1130390167236,974,1
62,quadbright,11.0,17,1,461.8380069732666,461.8370532989502,1433,1
63,quadbright,12.0,17,1,450.03581047058105,450.03509521484375,1440,1
64,quadbright,13.0,17,1,702.9409408569336,702.9399871826172,1226,0
65,quadbright,13.0,17,1,651.9627571105957,651.9606113433838,960,1
66,quadbright,14.0,17,0,785.0441932678223,785.0432395935059,1307,1
67,quadbright,15.0,17,1,459.98215675354004,459.9769115447998,1005,1
68,quadbright,16.0,17,1,658.6160659790039,658.6108207702637,1123,1
69,quadbright,17.0,17,1,658.2109928131104,658.2069396972656,982,1
70,quadbright,18.0,17,1,592.3199653625488,592.310905456543,1365,1
71,quadbright,19.0,17,1,1132.1320533752441,1132.1251392364502,850,1
72,quadbright,20.0,17,1,526.7667770385742,526.763916015625,1006,1
73,quadbright,21.0,17,1,560.7647895812988,560.7578754425049,914,1
74,quadbright,22.0,17,0,1297.4610328674316,1297.455072402954,972,1
75,quadbright,23.0,17,1,658.048152923584,658.04123878479,929,1
76,quadbright,24.0,17,1,691.5698051452637,691.5619373321533,1073,1
77,quadbright,25.0,26,1,794.3980693817139,794.396162033081,941,1
78,quadbright,26.0,26,0,1067.760944366455,1067.7528381347656,1300,1
79,quadbright,27.0,17,1,1087.3949527740479,1087.3827934265137,870,0
80,quadbright,27.0,17,1,1548.008918762207,1548.0060577392578,1225,1
81,quadbright,28.0,23,1,556.5190315246582,556.5121173858643,1231,0
82,quadbright,28.0,23,1,824.4941234588623,824.4919776916504,1486,1
83,quadbright,29.0,23,1,1116.5919303894043,1116.590976715088,1168,1
84,quadbright,30.0,23,0,1120.6812858581543,1120.6772327423096,876,1
85,quadbright,5.0,17,1,98.5112190246582,493.7920570373535,1274,1
86,quadbright,6.0,17,1,98.85501861572266,493.8840866088867,948,1
87,quadbright,7.0,17,1,197.53694534301758,493.18885803222656,1385,1
88,quadbright,8.0,17,1,100.9359359741211,485.4741096496582,1380,1
89,quadbright,9.0,17,1,493.12400817871094,493.1199550628662,975,1
90,quadbright,10.0,17,1,427.16503143310547,427.16383934020996,1026,0
91,quadbright,10.0,17,1,187.29591369628906,484.36880111694336,1362,1
92,quadbright,11.0,17,1,494.4460391998291,494.4441318511963,1155,1
93,quadbright,12.0,17,1,506.0899257659912,506.0880184173584,1190,1
94,quadbright,13.0,17,1,493.9858913421631,493.9839839935303,1110,1
95,quadbright,14.0,20,1,496.1199760437012,496.11806869506836,971,1
96,quadbright,15.0,17,1,593.487024307251,593.4820175170898,1483,1
97,quadbright,16.0,17,1,533.5490703582764,533.5450172424316,868,1
98,quadbright,17.0,17,1,527.047872543335,527.045726776123,933,1
99,quadbright,18.0,17,1,627.953052520752,627.9511451721191,1105,1
100,quadbright,19.0,17,1,687.1888637542725,687.187910079956,946,1
101,quadbright,20.0,17,1,580.6829929351807,580.6829929351807,844,1
102,quadbright,21.0,17,1,493.08276176452637,493.0758476257324,1086,1
103,quadbright,22.0,20,1,493.3178424835205,493.31092834472656,1310,0
104,quadbright,22.0,20,1,595.1731204986572,595.1683521270752,1066,0
105,quadbright,22.0,20,1,593.5430526733398,593.5401916503906,1354,1
106,quadbright,23.0,17,1,497.44415283203125,497.4331855773926,1317,1
107,quadbright,24.0,17,1,888.3225917816162,888.3199691772461,1310,1
108,quadbright,25.0,26,1,600.0540256500244,600.0509262084961,1221,1
109,quadbright,26.0,29,1,493.0100440979004,493.00503730773926,1273,1
110,quadbright,27.0,17,1,1584.625005722046,1584.6219062805176,1410,1
111,quadbright,28.0,20,1,704.2419910430908,704.2391300201416,1227,1
112,quadbright,29.0,23,1,692.4149990081787,692.4071311950684,958,1
113,quadbright,30.0,26,1,592.9520130157471,592.9470062255859,1043,1
114,quadbright,5.0,14,1,99.0440845489502,494.4009780883789,1495,1
115,quadbright,6.0,14,1,99.00403022766113,2505.8579444885254,1478,1
116,quadbright,7.0,14,1,596.5609550476074,596.560001373291,1498,1
117,quadbright,8.0,14,1,398.4560966491699,2023.3540534973145,1483,1
118,quadbright,9.0,14,1,99.54214096069336,494.54522132873535,1396,1
119,quadbright,10.0,14,1,396.6209888458252,396.6188430786133,1302,1
120,quadbright,11.0,14,1,496.837854385376,496.83308601379395,834,1
121,quadbright,12.0,14,1,525.6750583648682,525.6702899932861,1419,1
122,quadbright,13.0,14,1,585.1619243621826,585.1619243621826,1278,1
123,quadbright,14.0,20,1,494.82178688049316,494.8160648345947,1330,1
124,quadbright,15.0,14,1,504.331111907959,504.32801246643066,1061,1
125,quadbright,16.0,14,1,593.5440063476562,593.5401916503906,1451,1
126,quadbright,17.0,14,1,491.43290519714355,491.4288520812988,977,1
127,quadbright,18.0,14,1,593.2888984680176,593.2869911193848,1120,1
128,quadbright,19.0,14,1,790.4329299926758,790.4300689697266,815,1
129,quadbright,20.0,14,1,484.637975692749,484.6367835998535,1298,1
130,quadbright,21.0,14,1,932.2507381439209,932.2447776794434,1319,1
131,quadbright,22.0,20,1,492.63596534729004,492.6328659057617,853,1
132,quadbright,23.0,14,1,607.5088977813721,607.5057983398438,1384,1
133,quadbright,24.0,14,1,584.9919319152832,584.9909782409668,1487,1
134,quadbright,25.0,23,1,494.79007720947266,494.78793144226074,1159,1
135,quadbright,26.0,29,1,505.31005859375,505.3069591522217,1007,1
136,quadbright,27.0,14,1,626.1610984802246,626.1601448059082,1095,1
137,quadbright,28.0,20,1,625.709056854248,625.7078647613525,931,1
138,quadbright,29.0,21,1,591.5672779083252,591.562032699585,1414,1
139,quadbright,30.0,26,0,900.5520343780518,900.5429744720459,1368,1
140,quadbright,5.0,14,1,98.33192825317383,495.3322410583496,1359,1
141,quadbright,6.0,14,1,101.3948917388916,494.5087432861328,896,1
142,quadbright,7.0,14,1,97.66793251037598,583.2040309906006,866,1
143,quadbright,8.0,14,1,483.8898181915283,483.8888645172119,1427,1
144,quadbright,9.0,14,1,486.3872528076172,486.3862991333008,1382,1
145,quadbright,10.0,14,1,592.5331115722656,592.5290584564209,814,1
146,quadbright,11.0,14,1,603.1138896942139,603.1091213226318,1487,1
147,quadbright,12.0,14,1,494.08626556396484,494.0831661224365,871,1
148,quadbright,13.0,14,1,801.285982131958,801.2831211090088,951,1
149,quadbright,14.0,18,1,493.0760860443115,493.06702613830566,847,1
150,quadbright,15.0,14,1,523.9989757537842,523.9889621734619,1447,1
151,quadbright,16.0,14,1,495.1138496398926,495.1131343841553,1392,1
152,quadbright,17.0,14,1,625.1688003540039,625.1668930053711,1067,1
153,quadbright,18.0,14,1,495.3138828277588,495.31006813049316,1140,1
154,quadbright,19.0,14,1,592.7691459655762,592.7650928497314,1287,1
155,quadbright,20.0,14,1,594.2690372467041,594.264030456543,1292,1
156,quadbright,21.0,14,1,1230.9110164642334,1230.909824371338,1223,1
157,quadbright,22.0,18,1,1295.9611415863037,1295.954942703247,952,1
158,quadbright,23.0,14,1,491.1928176879883,491.19091033935547,816,1
159,quadbright,24.0,14,1,584.2769145965576,584.2759609222412,1179,1
160,quadbright,25.0,23,1,779.7770500183105,779.7760963439941,1270,1
161,quadbright,26.0,26,1,491.96314811706543,491.9571876525879,1424,1
162,quadbright,27.0,14,1,779.5369625091553,779.5357704162598,1382,1
163,quadbright,28.0,17,1,605.0088405609131,605.004072189331,1182,1
164,quadbright,29.0,21,1,592.9458141326904,592.9408073425293,967,1
165,quadbright,30.0,27,1,592.1850204467773,592.1778678894043,1216,1
166,quadbright,5.0,11,1,98.5569953918457,495.06211280822754,1118,1
167,quadbright,6.0,11,1,99.68280792236328,506.1678886413574,994,1
168,quadbright,7.0,11,1,204.57196235656738,590.5699729919434,1085,1
169,quadbright,8.0,11,1,98.98495674133301,582.5417041778564,903,1
170,quadbright,9.0,11,1,492.04421043395996,492.04206466674805,1449,1
171,quadbright,10.0,11,1,483.7656021118164,483.7648868560791,1312,1
172,quadbright,11.0,11,1,495.0909614562988,495.0897693634033,979,1
173,quadbright,12.0,11,1,595.2980518341064,595.2930450439453,904,1
174,quadbright,13.0,11,1,790.2340888977051,790.2319431304932,1114,1
175,quadbright,14.0,18,1,593.5499668121338,593.5490131378174,1055,1
176,quadbright,15.0,11,1,922.0218658447266,922.0187664031982,1332,1
177,quadbright,16.0,11,0,1024.2359638214111,1024.2350101470947,1150,1
178,quadbright,17.0,11,1,1002.0759105682373,1002.072811126709,1270,1
179,quadbright,18.0,11,1,692.8098201751709,692.8088665008545,1451,1
180,quadbright,19.0,11,1,791.2747859954834,791.2688255310059,997,1
181,quadbright,20.0,11,1,790.6501293182373,790.6441688537598,1205,1
182,quadbright,21.0,11,1,680.8271408081055,680.82594871521,1193,1
183,quadbright,22.0,18,1,795.6023216247559,795.6011295318604,969,1
184,quadbright,23.0,11,1,791.3608551025391,791.3589477539062,868,1
185,quadbright,24.0,11,1,878.7851333618164,878.7851333618164,1326,1
186,quadbright,25.0,20,1,586.4229202270508,586.421012878418,843,1
187,quadbright,26.0,26,1,789.8280620574951,789.8261547088623,1372,1
188,quadbright,27.0,11,1,1077.2159099578857,1077.214002609253,1166,0
189,quadbright,27.0,11,0,721.5161323547363,721.5144634246826,1466,1
190,quadbright,28.0,17,1,1584.0709209442139,1584.0659141540527,1411,1
191,quadbright,29.0,20,0,822.6110935211182,822.6058483123779,1169,1
192,quadbright,30.0,27,1,625.2899169921875,625.2861022949219,1127,1
193,quadbright,5.0,11,1,195.69683074951172,585.0837230682373,1156,1
194,quadbright,6.0,11,1,198.06694984436035,594.224214553833,879,1
195,quadbright,7.0,11,1,196.67291641235352,594.7017669677734,940,1
196,quadbright,8.0,11,1,691.8478012084961,691.8468475341797,1053,1
197,quadbright,9.0,11,1,590.9590721130371,590.9528732299805,895,0
198,quadbright,9.0,11,1,625.6570816040039,625.6518363952637,1312,1
199,quadbright,10.0,11,1,594.1967964172363,594.1948890686035,1073,1
200,quadbright,11.0,11,1,592.6880836486816,592.6830768585205,894,1
201,quadbright,12.0,11,1,593.9640998840332,593.9610004425049,1005,1
202,quadbright,13.0,11,1,592.1149253845215,592.1058654785156,927,1
203,quadbright,14.0,17,1,623.8489151000977,623.8458156585693,859,1
204,quadbright,15.0,11,0,725.4180908203125,725.416898727417,1469,1
205,quadbright,16.0,14,1,626.0240077972412,626.0230541229248,1144,1
206,quadbright,17.0,11,1,722.8808403015137,722.8717803955078,1433,1
207,quadbright,18.0,11,1,596.5960025787354,596.5931415557861,1442,1
208,quadbright,19.0,11,1,1196.6660022735596,1196.6638565063477,968,1
209,quadbright,20.0,11,1,694.4990158081055,694.4968700408936,1084,1
210,quadbright,21.0,11,1,878.4270286560059,878.4260749816895,1469,1
211,quadbright,22.0,17,1,735.2280616760254,735.2249622344971,1092,1
212,quadbright,23.0,11,0,828.7708759307861,828.7687301635742,1370,1
213,quadbright,24.0,11,0,780.6699275970459,780.667781829834,1227,1
214,quadbright,25.0,20,1,592.0288562774658,592.0236110687256,1237,1
215,quadbright,26.0,23,1,593.1057929992676,593.101978302002,1073,1
216,quadbright,27.0,14,0,792.7768230438232,792.7720546722412,1035,1
217,quadbright,28.0,14,1,779.954195022583,779.9522876739502,1148,1
218,quadbright,29.0,21,0,1023.8687992095947,1023.8656997680664,1032,1
219,quadbright,30.0,26,1,625.3759860992432,625.3712177276611,1185,1
220,quadbright,5.0,8,1,98.52170944213867,492.5358295440674,1155,1
221,quadbright,6.0,8,1,98.74391555786133,494.4639205932617,1046,1
222,quadbright,7.0,8,1,100.78883171081543,694.7078704833984,910,1
223,quadbright,8.0,8,0,806.0710430145264,806.067943572998,1248,1
224,quadbright,9.0,8,1,1616.8451309204102,1616.8410778045654,1382,1
225,quadbright,10.0,8,1,105.78489303588867,600.5339622497559,1052,1
226,quadbright,11.0,8,1,494.9178695678711,494.9157238006592,823,1
227,quadbright,12.0,8,1,792.7942276000977,792.7901744842529,1077,1
228,quadbright,13.0,8,0,1128.6060810089111,1128.6039352416992,1241,1
229,quadbright,14.0,17,1,625.3130435943604,625.3113746643066,1413,1
230,quadbright,15.0,14,1,592.50807762146,592.5028324127197,1194,1
231,quadbright,16.0,14,1,495.51892280578613,495.5179691314697,1492,1
232,quadbright,17.0,8,1,1385.847806930542,1385.8461380004883,1396,1
233,quadbright,18.0,8,0,989.7620677947998,989.757776260376,881,1
234,quadbright,19.0,8,0,794.4748401641846,794.4717407226562,1435,1
235,quadbright,20.0,8,1,801.1159896850586,801.112174987793,1390,1
236,quadbright,21.0,8,1,816.1439895629883,816.143274307251,917,1
237,quadbright,22.0,17,1,823.2221603393555,823.2159614562988,1022,1
238,quadbright,23.0,14,1,784.4159603118896,784.4147682189941,985,1
239,quadbright,24.0,14,1,790.8809185028076,790.8778190612793,1354,1
240,quadbright,25.0,17,1,792.8910255432129,792.8850650787354,1082,1
241,quadbright,26.0,23,1,727.5047302246094,727.503776550293,1367,1
242,quadbright,27.0,17,1,593.7297344207764,593.7280654907227,1354,1
243,quadbright,28.0,14,1,727.3032665252686,727.302074432373,1033,1
244,quadbright,29.0,23,1,625.8828639984131,625.8819103240967,932,1
245,quadbright,30.0,26,0,692.5172805786133,692.512035369873,990,1
246,quadbright,5.0,8,1,197.26324081420898,494.138240814209,965,1
247,quadbright,6.0,8,1,98.90103340148926,593.4038162231445,1157,1
248,quadbright,7.0,8,1,99.28178787231445,593.0769443511963,1065,1
249,quadbright,8.0,11,1,627.6578903198242,627.6516914367676,1207,0
250,quadbright,8.0,11,1,626.1003017425537,626.0981559753418,815,1
251,quadbright,9.0,8,1,192.73710250854492,820.1370239257812,1486,1
252,quadbright,10.0,8,1,582.237958908081,582.2367668151855,1410,1
253,quadbright,11.0,8,1,626.1987686157227,626.1959075927734,1257,1
254,quadbright,12.0,8,0,822.1690654754639,822.1650123596191,1211,1
255,quadbright,13.0,11,1,592.6401615142822,592.6361083984375,882,1
256,quadbright,14.0,15,1,529.2537212371826,529.2527675628662,1456,1
257,quadbright,15.0,14,1,780.0929546356201,780.0917625427246,1142,1
258,quadbright,16.0,12,1,791.5520668029785,791.5501594543457,1437,1
259,quadbright,17.0,8,0,990.2651309967041,990.260124206543,887,1
260,quadbright,18.0,11,1,488.59095573425293,488.588809967041,1181,1
261,quadbright,19.0,11,1,702.5699615478516,702.5649547576904,990,1
262,quadbright,20.0,8,1,1021.6729640960693,1021.6691493988037,875,1
263,quadbright,21.0,8,0,988.4259700775146,988.4231090545654,912,1
264,quadbright,22.0,15,1,1023.0550765991211,1023.0510234832764,920,1
265,quadbright,23.0,14,1,789.9236679077148,789.9210453033447,877,1
266,quadbright,24.0,14,1,693.0272579193115,693.0222511291504,1311,1
267,quadbright,25.0,17,1,791.9549942016602,791.9518947601318,843,1
268,quadbright,26.0,20,1,783.3459377288818,783.3452224731445,1361,1
269,quadbright,27.0,17,1,1220.1159000396729,1220.113754272461,1498,1
270,quadbright,28.0,11,1,823.1279850006104,823.124885559082,1070,1
271,quadbright,29.0,23,0,1616.2781715393066,1616.2660121917725,1014,1
272,quadbright,30.0,27,1,725.0759601593018,725.0709533691406,1062,1
273,quadbright,5.0,5,1,604.874849319458,604.870080947876,1148,1
274,quadbright,6.0,5,1,108.39200019836426,601.7889976501465,1331,1
275,quadbright,7.0,5,1,98.8931655883789,494.0950870513916,1154,1
276,quadbright,8.0,11,1,506.15787506103516,506.15596771240234,1109,1
277,quadbright,9.0,5,1,701.3072967529297,701.3051509857178,1354,1
278,quadbright,10.0,5,1,593.8889980316162,593.8827991485596,1435,1
279,quadbright,11.0,5,1,1474.68900680542,1474.6880531311035,890,1
280,quadbright,12.0,11,1,397.6151943206787,397.6101875305176,987,1
281,quadbright,13.0,11,1,526.9491672515869,526.9420146942139,1482,1
282,quadbright,14.0,15,1,490.7948970794678,490.79203605651855,883,1
283,quadbright,15.0,12,1,495.49221992492676,495.49007415771484,852,1
284,quadbright,16.0,12,1,692.5210952758789,692.5199031829834,1252,1
285,quadbright,17.0,11,1,695.6179141998291,695.6121921539307,1153,1
286,quadbright,18.0,11,1,878.7949085235596,878.7939548492432,856,1
287,quadbright,19.0,11,1,528.721809387207,528.7148952484131,1434,1
288,quadbright,20.0,5,1,492.91110038757324,492.9037094116211,1465,1
289,quadbright,21.0,11,0,859.4450950622559,859.4419956207275,1306,1
290,quadbright,22.0,15,0,894.416093826294,894.4141864776611,1425,0
291,quadbright,22.0,15,1,1417.92893409729,1417.922019958496,1301,1
292,quadbright,23.0,12,1,680.5880069732666,680.5870532989502,1345,1
293,quadbright,24.0,12,0,887.3488903045654,887.3391151428223,1043,1
294,quadbright,25.0,14,0,890.7766342163086,890.7766342163086,1166,1
295,quadbright,26.0,20,1,493.63207817077637,493.62897872924805,1176,1
296,quadbright,27.0,15,1,989.001989364624,988.9929294586182,890,1
297,quadbright,28.0,11,1,1089.1468524932861,1089.1449451446533,1334,1
298,quadbright,5.0,5,1,99.24912452697754,495.38111686706543,1368,1
299,quadbright,6.0,5,1,98.53792190551758,691.4050579071045,1139,1
300,quadbright,7.0,5,1,102.65111923217773,497.2870349884033,1090,1
301,quadbright,8.0,9,1,97.70488739013672,493.1340217590332,945,1
302,quadbright,9.0,5,1,882.7600479125977,882.7590942382812,1468,1
303,quadbright,10.0,5,0,988.5950088500977,988.5871410369873,1350,1
304,quadbright,11.0,5,1,931.0557842254639,931.0457706451416,1097,1
305,quadbright,12.0,11,1,493.35193634033203,493.3450222015381,1445,1
306,quadbright,13.0,9,1,691.4019584655762,691.3981437683105,1026,1
307,quadbright,14.0,14,1,428.098201751709,428.09605598449707,1173,1
308,quadbright,15.0,12,1,668.0271625518799,668.0161952972412,1311,1
309,quadbright,16.0,11,1,725.0139713287354,725.0082492828369,952,1
310,quadbright,17.0,11,1,824.4059085845947,824.4028091430664,1179,1
311,quadbright,18.0,9,0,757.7919960021973,757.7872276306152,810,1
312,quadbright,19.0,9,0,657.5319766998291,657.5279235839844,1022,1
313,quadbright,20.0,5,0,823.6658573150635,823.6620426177979,1012,1
314,quadbright,21.0,14,1,657.5832366943359,657.5801372528076,904,1
315,quadbright,22.0,14,1,657.3619842529297,657.3581695556641,1455,1
316,quadbright,23.0,12,0,594.6941375732422,594.6910381317139,1310,1
317,quadbright,24.0,14,0,836.2360000610352,836.2340927124023,1039,1
318,quadbright,25.0,17,1,990.6618595123291,990.6558990478516,899,1
319,quadbright,26.0,17,1,889.2719745635986,889.2672061920166,803,1
320,quadbright,27.0,15,1,769.190788269043,769.1876888275146,1137,0
321,quadbright,27.0,15,1,658.6291790008545,658.6251258850098,1371,1
322,quadbright,28.0,8,0,823.8680362701416,823.8599300384521,1271,1
323,quadbright,5.0,2,0,101.52292251586914,670.1560020446777,875,1
324,quadbright,6.0,2,0,99.98488426208496,758.3868503570557,877,1
325,quadbright,7.0,2,1,826.4138698577881,826.4100551605225,990,1
326,quadbright,8.0,9,1,66.81203842163086,438.88211250305176,1019,1
327,quadbright,9.0,2,1,736.4468574523926,736.4339828491211,873,1
328,quadbright,10.0,8,1,878.3068656921387,878.3059120178223,1030,1
329,quadbright,11.0,2,0,827.995777130127,827.988862991333,1290,1
330,quadbright,12.0,9,1,527.8759002685547,527.8749465942383,1472,1
331,quadbright,13.0,9,1,692.6846504211426,692.6798820495605,825,1
332,quadbright,14.0,14,1,460.83784103393555,460.83593368530273,1453,1
333,quadbright,15.0,11,1,655.0049781799316,654.9999713897705,920,1
334,quadbright,16.0,11,1,527.6179313659668,527.6169776916504,1347,1
335,quadbright,17.0,9,1,460.90197563171387,460.90126037597656,1472,1
336,quadbright,18.0,11,1,671.1790561676025,671.1733341217041,812,1
337,quadbright,19.0,11,1,621.5817928314209,621.5808391571045,1220,1
338,quadbright,20.0,8,1,924.2560863494873,924.2522716522217,1243,1
339,quadbright,21.0,14,1,689.6178722381592,689.6138191223145,1046,1
340,quadbright,22.0,14,1,757.8659057617188,757.8620910644531,1493,1
341,quadbright,23.0,14,0,691.6821002960205,691.6770935058594,1199,1
342,quadbright,24.0,15,0,590.49391746521,590.491771697998,1102,1
343,quadbright,25.0,17,0,769.5550918579102,769.5519924163818,1092,1
344,quadbright,26.0,17,1,692.9600238800049,692.9540634155273,1205,1
345,quadbright,27.0,14,0,625.6229877471924,625.6170272827148,1341,1
346,quadbright,28.0,11,0,683.4926605224609,683.4919452667236,1032,0
347,quadbright,28.0,11,0,581.9580554962158,581.9571018218994,903,1
348,quadbright,5.0,5,1,66.91098213195801,594.4628715515137,1010,1
349,quadbright,6.0,5,1,72.65710830688477,468.4278964996338,1208,1
350,quadbright,7.0,2,1,757.0040225982666,756.9997310638428,865,1
351,quadbright,8.0,8,0,625.1411437988281,625.1380443572998,1046,1
352,quadbright,9.0,2,0,648.8969326019287,648.8959789276123,844,0
353,quadbright,9.0,2,0,670.4409122467041,670.4387664794922,956,1
354,quadbright,10.0,8,0,62.706947326660156,1283.639907836914,817,0
355,quadbright,10.0,8,1,428.4510612487793,428.4501075744629,1205,1
356,quadbright,11.0,5,0,813.7500286102295,813.748836517334,994,1
357,quadbright,12.0,9,1,625.1547336578369,625.1509189605713,1462,1
358,quadbright,13.0,8,0,691.9410228729248,691.931962966919,839,1
359,quadbright,14.0,12,1,625.1230239868164,625.1120567321777,1272,1
360,quadbright,15.0,11,1,626.1889934539795,626.183032989502,1425,1
