trial,condition,eccentricity,magnitude,correct,srt_ms,keyboard_rt_ms,pre_change_ms,valid
1,control,5.0,20,1,209.06591415405273,1494.593858718872,1304,1
2,control,6.0,20,1,887.6309394836426,887.6278400421143,1406,1
3,control,7.0,20,1,100.1429557800293,614.4077777862549,1157,1
4,control,8.0,20,1,1970.1809883117676,1970.179796218872,1146,1
5,control,9.0,20,1,98.5112190246582,833.0161571502686,1486,1
6,control,10.0,20,1,1209.392786026001,1209.3918323516846,1025,1
7,control,11.0,20,1,888.916015625,888.9100551605225,1474,1
8,control,12.0,20,1,824.8519897460938,824.8507976531982,1167,1
9,control,13.0,20,1,615.4959201812744,615.494966506958,1168,1
10,control,14.0,20,1,1099.4958877563477,1099.4880199432373,840,1
11,control,15.0,20,1,396.50988578796387,891.4508819580078,1038,1
12,control,16.0,20,1,1211.1549377441406,1211.1542224884033,1426,1
13,control,17.0,20,1,801.5086650848389,801.5048503875732,856,0
14,control,17.0,20,0,19270.121097564697,19270.117044448853,1364,1
15,control,18.0,20,1,716.5939807891846,716.5918350219727,1176,1
16,control,19.0,20,1,592.1237468719482,592.1158790588379,1315,1
17,control,20.0,20,1,683.1967830657959,683.1960678100586,822,1
18,control,21.0,20,1,693.1371688842773,693.1331157684326,1398,1
19,control,22.0,20,1,735.2180480957031,735.2120876312256,925,1
20,control,23.0,20,1,879.7512054443359,879.7502517700195,1259,1
21,control,24.0,20,1,781.3193798065186,781.318187713623,1336,1
22,control,25.0,20,1,2704.815149307251,2704.8099040985107,978,1
23,control,26.0,20,1,1019.6762084960938,1019.6709632873535,916,1
24,control,27.0,20,0,1474.2891788482666,1474.2882251739502,1290,1
25,control,28.0,20,1,912.4131202697754,912.412166595459,1190,1
26,control,29.0,20,1,1517.6541805267334,1517.6513195037842,1020,1
27,control,30.0,20,1,694.817066192627,694.8161125183105,1373,1
28,control,5.0,20,1,87.51893043518066,582.988977432251,1120,1
29,control,6.0,20,1,196.1050033569336,714.5218849182129,1275,1
30,control,7.0,20,1,99.11298751831055,591.986894607544,920,1
31,control,8.0,20,1,100.14796257019043,494.6460723876953,1481,1
32,control,9.0,20,1,95.83210945129395,682.8291416168213,979,1
33,control,10.0,20,1,693.2549476623535,693.2539939880371,1484,1
34,control,11.0,20,1,99.86090660095215,592.0438766479492,841,1
35,control,12.0,20,1,788.1462574005127,788.140058517456,860,1
36,control,13.0,20,1,791.0537719726562,791.0490036010742,1488,1
37,control,14.0,20,1,684.1561794281006,684.1552257537842,1392,1
38,control,15.0,20,1,582.5271606445312,582.5259685516357,1217,1
39,control,16.0,20,1,792.9749488830566,792.971134185791,1256,1
40,control,17.0,23,1,691.4608478546143,691.4589405059814,1402,1
41,control,18.0,20,1,595.073938369751,595.0667858123779,1278,1
42,control,19.0,20,1,790.8298969268799,790.8239364624023,891,1
43,control,20.0,20,1,1517.1921253204346,1517.1830654144287,1446,1
44,control,21.0,20,1,493.04986000061035,493.04771423339844,978,1
45,control,22.0,20,1,693.3810710906982,693.3789253234863,1482,1
46,control,23.0,20,1,790.9083366394043,790.9061908721924,1337,1
47,control,24.0,20,1,693.911075592041,693.9072608947754,815,1
48,control,25.0,20,1,890.4719352722168,890.4650211334229,1436,1
49,control,26.0,20,1,725.6960868835449,725.6910800933838,1279,1
50,control,27.0,23,1,681.9310188293457,681.9300651550293,1191,1
51,control,28.0,20,1,1886.6550922393799,1886.6498470306396,817,1
52,control,29.0,20,1,824.1641521453857,824.1631984710693,991,1
53,control,30.0,20,1,691.0278797149658,691.0231113433838,890,1
54,control,5.0,17,1,206.81095123291016,601.7181873321533,1169,1
55,control,6.0,17,1,198.6391544342041,889.9152278900146,821,1
56,control,7.0,17,1,98.54984283447266,780.2948951721191,980,1
57,control,8.0,17,1,98.83904457092285,2309.2269897460938,1306,1
58,control,9.0,17,1,198.92597198486328,781.3727855682373,864,1
59,control,10.0,17,1,880.9168338775635,880.9158802032471,1341,1
60,control,11.0,17,1,582.4990272521973,582.4980735778809,1161,1
61,control,12.0,17,1,682.729959487915,682.7292442321777,1492,1
62,control,13.0,17,1,1381.0429573059082,1381.0381889343262,1197,1
63,control,14.0,17,1,979.6230792999268,979.621171951294,1171,1
64,control,15.0,17,1,1910.0396633148193,1910.0308418273926,1242,1
65,control,16.0,17,1,1176.6760349273682,1176.6741275787354,919,1
66,control,17.0,23,1,889.2669677734375,889.2648220062256,945,1
67,control,18.0,17,1,624.7951984405518,624.7899532318115,1135,1
68,control,19.0,17,0,1286.468744277954,1286.4618301391602,873,1
69,control,20.0,17,1,784.26194190979,784.2600345611572,1298,1
70,control,21.0,17,0,1682.6870441436768,1682.6820373535156,1139,1
71,control,22.0,17,1,900.8235931396484,900.8216857910156,1302,1
72,control,23.0,17,1,879.7562122344971,879.7550201416016,1092,1
73,control,24.0,17,1,582.2048187255859,582.2038650512695,1141,1
74,control,25.0,17,1,823.9412307739258,823.9412307739258,1264,1
75,control,26.0,17,1,779.1121006011963,779.1111469268799,1369,1
76,control,27.0,23,1,790.4689311981201,790.4660701751709,1430,1
77,control,28.0,17,1,891.139030456543,891.1378383636475,1464,1
78,control,29.0,17,1,2200.1609802246094,2200.160026550293,1097,1
79,control,30.0,17,1,1613.502025604248,1613.4998798370361,1332,1
80,control,5.0,17,1,98.89483451843262,602.8740406036377,1060,1
81,control,6.0,17,1,188.18974494934082,682.3399066925049,1009,1
82,control,7.0,17,1,98.88291358947754,691.5509700775146,901,1
83,control,8.0,17,1,791.4218902587891,791.4168834686279,1207,1
84,control,9.0,17,1,594.3689346313477,594.3679809570312,1152,1
85,control,10.0,17,1,96.65417671203613,483.43396186828613,983,1
86,control,11.0,17,1,88.3181095123291,682.1091175079346,1294,1
87,control,12.0,17,1,779.6821594238281,779.6809673309326,905,1
88,control,13.0,17,1,1297.591209411621,1297.5883483886719,1265,1
89,control,14.0,17,1,890.7938003540039,890.7928466796875,1185,1
90,control,15.0,17,1,791.9130325317383,791.9120788574219,803,1
91,control,16.0,17,1,692.6689147949219,692.6629543304443,1046,1
92,control,17.0,20,1,878.7679672241211,878.7670135498047,954,1
93,control,18.0,17,1,791.7890548706055,791.7881011962891,1262,1
94,control,19.0,20,1,892.5778865814209,892.5769329071045,1248,1
95,control,20.0,17,1,1428.9090633392334,1428.8959503173828,1292,1
96,control,21.0,20,1,704.0579319000244,704.0510177612305,1465,1
97,control,22.0,17,0,1725.964069366455,1725.9559631347656,824,1
98,control,23.0,17,1,713.1068706512451,713.1061553955078,1055,1
99,control,24.0,17,1,593.0180549621582,593.0111408233643,902,1
100,control,25.0,17,1,887.2179985046387,887.2170448303223,1344,1
101,control,26.0,17,1,591.1531448364258,591.1481380462646,982,1
102,control,27.0,20,1,822.6668834686279,822.6618766784668,879,1
103,control,28.0,17,1,1297.576904296875,1297.5709438323975,1341,1
104,control,29.0,17,1,493.6859607696533,493.6821460723877,1300,1
105,control,30.0,17,1,593.3010578155518,593.2941436767578,1224,1
106,control,5.0,14,1,99.74098205566406,590.6779766082764,860,1
107,control,6.0,14,1,94.81310844421387,688.3549690246582,1286,1
108,control,7.0,14,1,529.2470455169678,529.2439460754395,897,1
109,control,8.0,14,1,593.7750339508057,593.7719345092773,1095,1
110,control,9.0,14,1,98.59108924865723,1090.2268886566162,1395,1
111,control,10.0,14,1,791.3949489593506,791.3930416107178,835,1
112,control,11.0,14,1,691.6120052337646,691.6069984436035,1500,1
113,control,12.0,14,1,593.5988426208496,593.592643737793,1268,1
114,control,13.0,14,1,801.0752201080322,801.0730743408203,1187,1
115,control,14.0,14,1,802.138090133667,802.1361827850342,819,1
116,control,15.0,14,1,690.1519298553467,690.1469230651855,1281,1
117,control,16.0,14,1,692.4958229064941,692.4879550933838,1069,1
118,control,17.0,20,1,581.798791885376,581.7978382110596,1474,1
119,control,18.0,14,1,923.8498210906982,923.846960067749,1264,1
120,control,19.0,20,1,823.7969875335693,823.793888092041,890,1
121,control,20.0,14,1,724.1330146789551,724.1251468658447,1248,1
122,control,21.0,20,1,585.8421325683594,585.841178894043,1016,1
123,control,22.0,20,1,1414.945125579834,1414.942979812622,1402,1
124,control,23.0,14,1,823.4729766845703,823.4641551971436,1003,1
125,control,24.0,14,1,658.3290100097656,658.3211421966553,1165,1
126,control,25.0,14,1,66.55097007751465,913.2058620452881,1298,1
127,control,26.0,14,1,757.8480243682861,757.843017578125,1171,1
128,control,27.0,20,1,1143.2929039001465,1143.29195022583,1316,1
129,control,28.0,14,1,878.572940826416,878.5719871520996,854,1
130,control,29.0,14,1,698.2810497283936,698.2741355895996,821,1
131,control,30.0,14,1,1056.4100742340088,1056.4031600952148,1283,1
132,control,5.0,14,1,825.0482082366943,825.0420093536377,1314,1
133,control,6.0,14,1,493.09802055358887,493.09611320495605,1194,1
134,control,7.0,14,1,880.4678916931152,880.4669380187988,999,1
135,control,8.0,14,1,749.3407726287842,749.3391036987305,1430,1
136,control,9.0,14,1,95.51000595092773,581.5572738647461,826,1
137,control,10.0,14,1,757.753849029541,757.7469348907471,939,1
138,control,11.0,14,1,814.7718906402588,814.7718906402588,1233,1
139,control,12.0,14,1,723.1128215789795,723.1080532073975,823,1
140,control,13.0,14,1,593.6160087585449,593.6148166656494,1414,1
141,control,14.0,14,1,1309.0219497680664,1309.02099609375,1085,1
142,control,15.0,14,1,915.0209426879883,915.0197505950928,1140,1
143,control,16.0,14,1,99.0147590637207,747.9829788208008,1184,1
144,control,17.0,17,1,880.1627159118652,880.1617622375488,1305,1
145,control,18.0,14,1,914.6182537078857,914.6170616149902,1372,1
146,control,19.0,18,1,824.8281478881836,824.8269557952881,1428,1
147,control,20.0,14,1,659.9307060241699,659.9259376525879,1186,1
148,control,21.0,18,1,756.0811042785645,756.072998046875,875,1
149,control,22.0,20,1,747.7450370788574,747.7438449859619,855,1
150,control,23.0,14,1,757.6148509979248,757.6119899749756,1294,1
151,control,24.0,14,1,989.0201091766357,989.0182018280029,1397,1
152,control,25.0,14,1,814.7678375244141,814.7668838500977,1139,1
153,control,26.0,14,1,725.6631851196289,725.6622314453125,1289,1
154,control,27.0,17,1,824.9897956848145,824.9847888946533,1139,1
155,control,28.0,14,1,978.8308143615723,978.8298606872559,927,1
156,control,29.0,14,0,1251.884937286377,1251.8808841705322,1079,1
157,control,30.0,14,1,1846.9281196594238,1846.9202518463135,1144,1
158,control,5.0,11,1,97.17035293579102,459.49316024780273,1327,1
159,control,6.0,11,1,626.2862682342529,626.2741088867188,1108,1
160,control,7.0,11,1,294.54803466796875,461.34114265441895,1462,1
161,control,8.0,11,1,725.2800464630127,725.2790927886963,1456,1
162,control,9.0,11,0,97.41497039794922,1275.7129669189453,1170,1
163,control,10.0,11,1,197.63517379760742,1276.0181427001953,993,1
164,control,11.0,11,1,1385.038137435913,1385.033130645752,949,1
165,control,12.0,11,1,626.1608600616455,626.1570453643799,1141,1
166,control,13.0,11,1,1022.3019123077393,1022.2949981689453,1385,1
167,control,14.0,11,1,817.2447681427002,817.2438144683838,1071,1
168,control,15.0,11,1,725.2697944641113,725.2688407897949,1217,1
169,control,16.0,11,1,649.5926380157471,649.5916843414307,1139,1
170,control,17.0,17,1,979.8018932342529,979.799747467041,945,1
171,control,18.0,11,1,922.7149486541748,922.713041305542,1232,1
172,control,19.0,18,1,526.0608196258545,526.0558128356934,1326,1
173,control,20.0,11,0,1286.4348888397217,1286.4336967468262,1243,1
174,control,21.0,18,1,647.9649543762207,647.9640007019043,1442,1
175,control,22.0,18,0,1912.4789237976074,1912.4751091003418,858,1
176,control,23.0,11,1,615.8280372619629,615.8270835876465,1167,1
177,control,24.0,11,1,1738.3651733398438,1738.3639812469482,902,1
178,control,25.0,11,1,625.4572868347168,625.4551410675049,1051,1
179,control,26.0,11,1,1012.1550559997559,1012.152910232544,840,1
180,control,27.0,17,1,725.6402969360352,725.6362438201904,1154,1
181,control,28.0,11,0,2176.564931869507,2176.5620708465576,1039,1
182,control,29.0,17,1,1012.5062465667725,1012.505054473877,962,1
183,control,30.0,11,0,1549.428939819336,1549.4191646575928,987,1
184,control,5.0,11,1,198.94814491271973,1121.8023300170898,1055,1
185,control,6.0,11,1,100.23093223571777,682.3580265045166,1454,1
186,control,7.0,11,1,581.7029476165771,581.7022323608398,1462,1
187,control,8.0,11,1,624.3088245391846,624.3038177490234,1358,1
188,control,9.0,14,1,1428.0047416687012,1428.0009269714355,827,1
189,control,10.0,11,1,781.1810970306396,781.1799049377441,1115,1
190,control,11.0,11,1,189.47792053222656,684.1809749603271,1354,1
191,control,12.0,11,1,99.56192970275879,900.2838134765625,1165,1
192,control,13.0,11,1,625.0870227813721,625.0841617584229,815,1
193,control,14.0,11,1,931.995153427124,931.9851398468018,1249,1
194,control,15.0,11,1,297.98007011413574,890.7589912414551,1165,1
195,control,16.0,11,1,594.451904296875,594.4499969482422,1059,1
196,control,17.0,14,1,725.3599166870117,725.3587245941162,1463,1
197,control,18.0,11,1,814.1360282897949,814.1348361968994,951,1
198,control,19.0,17,1,724.4579792022705,724.4508266448975,888,1
199,control,20.0,14,0,1375.2989768981934,1375.298023223877,976,1
200,control,21.0,17,1,693.21608543396,693.2129859924316,1436,1
201,control,22.0,20,1,97.50676155090332,681.938886642456,871,1
202,control,23.0,11,1,892.0600414276123,892.0571804046631,1438,1
203,control,24.0,11,1,879.9200057983398,879.9190521240234,871,1
204,control,25.0,11,1,1427.1619319915771,1427.1600246429443,1257,1
205,control,26.0,11,1,814.4898414611816,814.4881725311279,1371,1
206,control,27.0,14,1,99.03597831726074,659.0681076049805,1387,1
207,control,28.0,14,1,1416.5921211242676,1416.5842533111572,1090,1
208,control,29.0,17,1,1045.1719760894775,1045.1710224151611,1111,1
209,control,30.0,14,0,911.8900299072266,911.8890762329102,1244,1
210,control,5.0,8,1,715.7042026519775,715.7032489776611,1070,1
211,control,6.0,8,1,914.6296977996826,914.6289825439453,860,1
212,control,7.0,8,1,912.1379852294922,912.1370315551758,1383,1
213,control,8.0,8,1,132.25603103637695,790.9049987792969,964,1
214,control,9.0,14,1,715.1799201965332,715.1789665222168,1050,1
215,control,10.0,8,1,66.35284423828125,846.3039398193359,1112,1
216,control,11.0,8,1,594.1598415374756,594.1557884216309,935,1
217,control,12.0,8,1,802.1788597106934,802.1767139434814,880,1
218,control,13.0,8,1,657.7599048614502,657.7568054199219,1339,1
219,control,14.0,8,1,888.0009651184082,887.9919052124023,1108,1
220,control,15.0,8,1,1551.6748428344727,1551.6700744628906,1310,1
221,control,16.0,8,0,133.4679126739502,1376.8911361694336,1434,1
222,control,17.0,14,1,1066.2250518798828,1066.2200450897217,954,1
223,control,18.0,8,0,1021.1038589477539,1021.09694480896,1107,1
224,control,19.0,17,1,462.5430107116699,462.5370502471924,1489,1
225,control,20.0,17,1,691.6468143463135,691.6348934173584,1347,1
226,control,21.0,17,1,695.8577632904053,695.8560943603516,946,1
227,control,22.0,20,1,692.1288967132568,692.1279430389404,1041,1
228,control,23.0,8,1,1144.2041397094727,1144.2031860351562,980,1
229,control,24.0,8,0,788.6781692504883,788.67506980896,1312,1
230,control,25.0,8,0,855.8471202850342,855.844259262085,1210,1
231,control,26.0,8,1,921.428918838501,921.4217662811279,916,1
232,control,27.0,14,1,264.24717903137207,922.2581386566162,1445,1
233,control,28.0,14,1,1243.135929107666,1243.1349754333496,1499,1
234,control,29.0,15,0,1177.4272918701172,1177.4260997772217,1297,1
235,control,30.0,17,1,724.4319915771484,724.423885345459,994,1
236,control,5.0,8,1,131.70194625854492,923.9091873168945,1426,1
237,control,6.0,8,1,65.83595275878906,591.8378829956055,1326,1
238,control,7.0,8,1,131.61873817443848,659.0228080749512,1275,1
239,control,8.0,8,1,591.9842720031738,591.9761657714844,1307,1
240,control,9.0,12,1,649.7840881347656,649.7828960418701,1432,1
241,control,10.0,8,1,793.179988861084,793.1778430938721,842,1
242,control,11.0,8,0,791.5749549865723,791.5740013122559,824,1
243,control,12.0,8,1,726.3669967651367,726.3660430908203,1438,1
244,control,13.0,8,1,131.2119960784912,923.6600399017334,1146,1
245,control,14.0,8,1,781.231164932251,781.2302112579346,1425,1
246,control,15.0,8,0,66.82085990905762,1546.5469360351562,1394,1
247,control,16.0,11,1,1375.2679824829102,1375.2670288085938,1136,1
248,control,17.0,11,1,1142.8780555725098,1142.8771018981934,1314,1
249,control,18.0,11,1,1044.9490547180176,1044.947862625122,1054,1
250,control,19.0,15,1,789.8039817810059,789.801836013794,1309,1
251,control,20.0,17,1,1011.5599632263184,1011.559009552002,1294,1
252,control,21.0,15,1,913.9928817749023,913.9919281005859,1363,1
253,control,22.0,19,1,792.1140193939209,792.107105255127,1137,1
254,control,23.0,8,0,859.2031002044678,859.2000007629395,1410,1
255,control,24.0,11,0,923.9742755889893,923.9730834960938,985,1
256,control,25.0,11,0,913.2709503173828,913.2699966430664,941,1
257,control,26.0,8,0,1508.3041191101074,1508.3019733428955,1282,1
258,control,27.0,11,0,912.6458168029785,912.6441478729248,1400,1
259,control,28.0,12,0,856.7988872528076,856.7900657653809,1302,1
260,control,29.0,17,1,921.4730262756348,921.4708805084229,1102,1
261,control,30.0,17,1,923.4621524810791,923.4611988067627,1012,1
262,control,5.0,5,1,129.29821014404297,1251.6591548919678,1007,1
263,control,6.0,5,1,765.4519081115723,765.4500007629395,1209,1
264,control,7.0,5,1,724.1196632385254,724.113941192627,1495,1
265,control,8.0,5,0,912.7709865570068,912.7700328826904,925,1
266,control,9.0,12,1,780.0428867340088,780.0419330596924,999,1
267,control,10.0,5,0,129.7159194946289,944.9498653411865,1235,1
268,control,11.0,11,1,462.12291717529297,462.11719512939453,1107,1
269,control,12.0,5,1,1373.5487461090088,1373.5477924346924,876,1
270,control,13.0,5,0,1045.320749282837,1045.3190803527832,817,1
271,control,14.0,5,1,133.47315788269043,857.7630519866943,1314,1
272,control,15.0,11,1,1163.9540195465088,1163.9440059661865,1059,1
273,control,16.0,11,1,878.1487941741943,878.1478404998779,1259,1
274,control,17.0,11,1,792.2377586364746,792.2348976135254,1486,1
275,control,18.0,11,1,790.3900146484375,790.3811931610107,903,1
276,control,19.0,15,1,691.0021305084229,690.9980773925781,1410,1
277,control,20.0,15,0,781.7752361297607,781.7742824554443,1194,1
278,control,21.0,15,0,922.3589897155762,922.3537445068359,843,1
279,control,22.0,19,1,782.0119857788086,782.0107936859131,977,1
280,control,23.0,11,1,880.974292755127,880.9731006622314,1228,1
281,control,24.0,14,1,1013.1456851959229,1013.14377784729,863,1
282,control,25.0,14,0,2055.6838512420654,2055.680990219116,962,1
283,control,26.0,11,1,857.6290607452393,857.6259613037109,1272,1
284,control,27.0,14,1,818.6640739440918,818.6631202697754,913,1
285,control,28.0,14,1,2277.935028076172,2277.927875518799,1388,1
286,control,29.0,17,1,758.0029964447021,757.9989433288574,929,1
287,control,30.0,15,1,754.8708915710449,754.8658847808838,1337,1
288,control,5.0,5,1,131.57916069030762,1191.432237625122,1411,1
289,control,6.0,5,1,648.9942073822021,648.9930152893066,1356,1
290,control,7.0,5,1,121.03104591369629,1417.8879261016846,1041,1
291,control,8.0,8,1,492.7098751068115,492.7091598510742,1199,1
292,control,9.0,11,1,847.5909233093262,847.5899696350098,1172,1
293,control,10.0,8,1,175.13108253479004,768.125057220459,1199,1
294,control,11.0,11,1,530.1010608673096,530.0967693328857,1000,1
295,control,12.0,5,0,129.80198860168457,1043.215036392212,805,1
296,control,13.0,8,0,164.1378402709961,1122.971773147583,1456,1
297,control,14.0,5,1,747.6730346679688,747.6708889007568,1013,1
298,control,15.0,11,1,164.1380786895752,747.265100479126,1424,1
299,control,16.0,9,1,1714.0977382659912,1714.0889167785645,1487,1
300,control,17.0,8,1,585.9830379486084,585.9808921813965,1356,1
301,control,18.0,9,1,914.2611026763916,914.2589569091797,1045,1
302,control,19.0,14,1,592.7400588989258,592.7388668060303,895,1
303,control,20.0,17,1,592.742919921875,592.738151550293,1073,1
304,control,21.0,17,1,593.1880474090576,593.1870937347412,1010,1
305,control,22.0,18,1,628.5781860351562,628.5760402679443,1120,1
306,control,23.0,11,1,1253.180980682373,1253.176212310791,972,1
307,control,24.0,14,1,131.29210472106934,1473.7000465393066,1152,1
308,control,25.0,17,1,582.7739238739014,582.772970199585,977,1
309,control,26.0,11,1,900.7267951965332,900.7229804992676,1158,1
310,control,27.0,14,1,659.0893268585205,659.0871810913086,926,1
311,control,28.0,14,1,1065.598964691162,1065.5899047851562,1460,1
312,control,29.0,16,0,813.323974609375,813.3230209350586,1061,1
313,control,30.0,15,1,616.6629791259766,616.6620254516602,1435,1
314,control,5.0,2,1,1143.2929039001465,1143.2921886444092,857,1
315,control,6.0,2,1,1198.5080242156982,1198.502779006958,1036,1
316,control,7.0,2,0,1056.4849376678467,1056.4837455749512,1240,1
317,control,8.0,8,0,1296.781063079834,1296.7758178710938,1382,1
318,control,9.0,11,1,591.731071472168,591.7239189147949,1052,1
319,control,10.0,8,1,746.1512088775635,746.1502552032471,813,1
320,control,11.0,9,1,165.66824913024902,690.342903137207,854,1
321,control,12.0,8,1,755.059003829956,755.0568580627441,1328,1
322,control,13.0,11,0,98.44422340393066,923.9380359649658,1061,1
323,control,14.0,2,1,693.2940483093262,693.2878494262695,1490,1
324,control,15.0,9,1,758.4888935089111,758.4881782531738,1461,1
325,control,16.0,9,1,758.5570812225342,758.5508823394775,1071,1
326,control,17.0,8,0,165.48991203308105,1219.2230224609375,851,1
327,control,18.0,9,1,66.17212295532227,592.9989814758301,850,1
328,control,19.0,14,1,132.1120262145996,1177.4611473083496,879,1
329,control,20.0,17,1,1055.124044418335,1055.114984512329,1493,1
330,control,21.0,17,1,1049.868106842041,1049.865961074829,1224,1
331,control,22.0,18,1,716.080904006958,716.0799503326416,1014,1
332,control,23.0,9,1,681.149959564209,681.1490058898926,1100,1
333,control,24.0,12,0,824.0258693695068,824.0149021148682,1349,1
334,control,25.0,17,1,591.3088321685791,591.3007259368896,1340,1
335,control,26.0,9,0,1055.8059215545654,1055.8009147644043,827,1
336,control,27.0,12,0,756.8910121917725,756.8869590759277,880,1
337,control,28.0,13,1,723.4420776367188,723.4351634979248,1098,1
338,control,29.0,17,0,768.3000564575195,768.2969570159912,954,1
339,control,30.0,14,0,759.2208385467529,759.2136859893799,905,1
340,control,5.0,2,0,1561.2828731536865,1561.2759590148926,1007,1
341,control,6.0,2,0,890.8538818359375,890.8431529998779,1061,1
342,control,7.0,5,1,165.94386100769043,691.8430328369141,885,1
343,control,8.0,9,1,593.5781002044678,593.5752391815186,1373,1
344,control,9.0,9,1,902.1191596984863,902.1151065826416,1271,1
345,control,10.0,6,1,134.0310573577881,814.1019344329834,1005,1
346,control,11.0,9,1,888.159990310669,888.1542682647705,971,1
347,control,12.0,8,1,516.3519382476807,516.3519382476807,934,1
348,control,13.0,14,1,593.8990116119385,593.8968658447266,1362,1
349,control,14.0,2,1,714.8721218109131,714.8711681365967,1208,1
350,control,15.0,9,0,1220.6079959869385,1220.607042312622,1479,1
351,control,16.0,8,1,582.179069519043,582.1781158447266,1041,1
352,control,17.0,11,1,824.3541717529297,824.3529796600342,1483,1
353,control,18.0,8,1,879.331111907959,879.3299198150635,1237,1
354,control,19.0,12,1,724.8349189758301,724.8330116271973,1081,1
355,control,20.0,16,0,758.1822872161865,758.1770420074463,1373,1
356,control,21.0,16,1,582.8630924224854,582.862138748169,1080,1
357,control,22.0,17,1,813.6920928955078,813.6899471282959,1073,1
358,control,23.0,9,1,692.3189163208008,692.3136711120605,946,1
359,control,24.0,14,1,1582.7710628509521,1582.768201828003,1366,1
360,control,25.0,15,0,2177.288770675659,2177.278995513916,1219,0
361,control,25.0,15,1,1647.3820209503174,1647.3782062530518,1159,1
362,control,26.0,11,0,1188.4210109710693,1188.4150505065918,894,1
363,control,27.0,14,1,881.2522888183594,881.2510967254639,1381,1
364,control,28.0,13,1,780.4467678070068,780.4458141326904,930,1
365,control,29.0,18,1,779.8252105712891,779.8242568969727,977,1
366,control,30.0,15,1,1032.905101776123,1032.9022407531738,829,1
367,control,5.0,5,1,131.84595108032227,658.4279537200928,1175,1
368,control,6.0,5,1,131.34407997131348,593.4488773345947,1258,1
369,control,7.0,5,0,131.3939094543457,986.687183380127,1308,1
370,control,8.0,9,1,272.2759246826172,535.362958908081,1227,1
371,control,9.0,9,1,131.43110275268555,659.5311164855957,1051,1
372,control,10.0,6,1,934.3938827514648,934.3860149383545,1076,1
373,control,11.0,8,1,130.84697723388672,791.7270660400391,1253,1
374,control,12.0,6,1,140.25211334228516,799.7479438781738,810,1
375,control,13.0,14,1,648.1337547302246,648.1328010559082,1167,1
376,control,14.0,1,0,980.9606075286865,980.9598922729492,1097,1
377,control,15.0,11,1,132.30299949645996,715.5640125274658,955,1
378,control,16.0,8,0,1045.0239181518555,1045.022964477539,1319,1
379,control,17.0,11,0,1177.121877670288,1177.1211624145508,986,1
380,control,18.0,8,0,780.13014793396,780.1289558410645,1003,1
381,control,19.0,12,1,802.0801544189453,802.0749092102051,1053,1
382,control,20.0,17,1,659.1179370880127,659.1131687164307,863,1
383,control,21.0,16,1,999.3150234222412,999.3112087249756,1165,1
384,control,22.0,17,0,855.8070659637451,855.8001518249512,1084,1
385,control,23.0,8,1,782.1741104125977,782.1729183197021,1441,1
386,control,24.0,14,1,657.9997539520264,657.9959392547607,1129,1
387,control,25.0,15,0,1124.8409748077393,1124.8350143432617,1440,1
388,control,26.0,12,1,1164.8859977722168,1164.884090423584,1028,1
389,control,27.0,14,1,659.7640514373779,659.757137298584,1358,1
1,quadbright,5.0,20,1,98.7858772277832,1913.1817817687988,1318,1
2,quadbright,6.0,20,1,101.55797004699707,881.5627098083496,1405,1
3,quadbright,7.0,20,1,197.03221321105957,791.9971942901611,1470,1
4,quadbright,8.0,20,1,103.06215286254883,997.934103012085,1241,1
5,quadbright,9.0,20,1,880.4020881652832,880.4011344909668,949,1
6,quadbright,10.0,20,1,891.1190032958984,891.1168575286865,1440,1
7,quadbright,11.0,20,0,2607.7470779418945,2607.741117477417,992,1
8,quadbright,12.0,20,1,980.3247451782227,980.3240299224854,995,1
9,quadbright,13.0,20,1,87.60809898376465,1277.8422832489014,985,1
10,quadbright,14.0,20,1,802.0670413970947,802.0651340484619,1104,1
11,quadbright,15.0,20,1,97.69415855407715,1087.9201889038086,1389,1
12,quadbright,16.0,20,1,832.6570987701416,832.650899887085,1158,1
13,quadbright,17.0,20,1,628.0109882354736,628.0059814453125,986,1
14,quadbright,18.0,20,1,592.0758247375488,592.0729637145996,1499,1
15,quadbright,19.0,20,1,890.1987075805664,890.1958465576172,864,1
16,quadbright,20.0,20,1,583.1348896026611,583.1327438354492,1395,1
17,quadbright,21.0,20,1,880.9599876403809,880.9590339660645,1318,1
18,quadbright,22.0,20,1,1606.137752532959,1606.1367988586426,977,1
19,quadbright,23.0,20,1,823.6331939697266,823.6310482025146,831,1
20,quadbright,24.0,20,1,626.2879371643066,626.2798309326172,1278,1
21,quadbright,25.0,20,1,1087.2340202331543,1087.2251987457275,1247,1
22,quadbright,26.0,20,1,692.9197311401367,692.9187774658203,1439,1
23,quadbright,27.0,20,1,715.7199382781982,715.7187461853027,1106,1
24,quadbright,28.0,20,1,692.9008960723877,692.8997039794922,1212,1
25,quadbright,29.0,20,1,989.2618656158447,989.2611503601074,1194,1
26,quadbright,30.0,20,1,813.0350112915039,813.032865524292,1463,1
27,quadbright,5.0,20,1,99.00188446044922,2120.3818321228027,1291,1
28,quadbright,6.0,20,1,100.37708282470703,495.46003341674805,1266,1
29,quadbright,7.0,20,1,98.45995903015137,692.3189163208008,1153,1
30,quadbright,8.0,20,1,99.8988151550293,693.2957172393799,819,1
31,quadbright,9.0,20,1,99.45297241210938,813.0221366882324,964,1
32,quadbright,10.0,20,1,493.5300350189209,493.5290813446045,1157,1
33,quadbright,11.0,23,1,615.1180267333984,615.1180267333984,1271,1
34,quadbright,12.0,20,0,2508.3537101745605,2508.3508491516113,914,1
35,quadbright,13.0,20,1,594.1708087921143,594.1698551177979,1375,1
36,quadbright,14.0,20,0,1725.0409126281738,1725.0347137451172,1238,1
37,quadbright,15.0,20,1,789.6790504455566,789.6699905395508,1227,1
38,quadbright,16.0,20,1,980.0150394439697,980.0138473510742,1407,1
39,quadbright,17.0,20,1,889.2431259155273,889.2359733581543,1252,1
40,quadbright,18.0,20,1,692.018985748291,692.0168399810791,869,1
41,quadbright,19.0,20,1,691.0438537597656,691.0381317138672,886,1
42,quadbright,20.0,20,1,923.6102104187012,923.6080646514893,822,1
43,quadbright,21.0,20,1,684.0460300445557,684.0441226959229,1372,1
44,quadbright,22.0,20,1,781.1679840087891,781.1667919158936,1051,1
45,quadbright,23.0,20,1,879.9290657043457,879.9281120300293,908,1
46,quadbright,24.0,20,1,724.9679565429688,724.9622344970703,1377,1
47,quadbright,25.0,20,1,930.9279918670654,930.9229850769043,1041,1
48,quadbright,26.0,20,1,1386.1801624298096,1386.1770629882812,1157,1
49,quadbright,27.0,20,1,684.2732429504395,684.2732429504395,1079,1
50,quadbright,28.0,20,1,693.2437419891357,693.2418346405029,1452,1
51,quadbright,29.0,20,1,881.6728591918945,881.6719055175781,1332,1
52,quadbright,30.0,20,1,912.384033203125,912.3833179473877,1402,1
53,quadbright,5.0,17,1,188.86208534240723,781.8200588226318,1310,1
54,quadbright,6.0,17,1,131.06369972229004,722.8028774261475,826,1
55,quadbright,7.0,17,1,196.46596908569336,493.5040473937988,957,1
56,quadbright,8.0,17,1,784.5120429992676,784.5110893249512,952,1
57,quadbright,9.0,17,1,890.3040885925293,890.3002738952637,1025,1
58,quadbright,10.0,17,1,791.8939590454102,791.8920516967773,1391,1
59,quadbright,11.0,23,1,888.1421089172363,888.1347179412842,867,1
60,quadbright,12.0,23,1,484.1148853302002,484.1139316558838,1159,1
61,quadbright,13.0,17,0,725.6100177764893,725.6090641021729,1368,1
62,quadbright,14.0,23,1,594.2468643188477,594.2459106445312,1485,1
63,quadbright,15.0,17,1,681.6766262054443,681.6756725311279,1116,1
64,quadbright,16.0,17,1,626.2719631195068,626.2710094451904,1436,1
65,quadbright,17.0,17,1,881.9880485534668,881.9870948791504,1400,1
66,quadbright,18.0,17,1,591.6030406951904,591.5968418121338,1004,1
67,quadbright,19.0,17,1,680.7618141174316,680.7599067687988,1258,1
68,quadbright,20.0,17,1,680.5880069732666,680.5868148803711,963,1
69,quadbright,21.0,17,1,782.3870182037354,782.3858261108398,1022,1
70,quadbright,22.0,17,1,1029.6950340270996,1029.6878814697266,899,1
71,quadbright,23.0,17,1,920.7360744476318,920.7301139831543,884,1
72,quadbright,24.0,17,1,1418.6937808990479,1418.6880588531494,1223,1
73,quadbright,25.0,17,1,691.5600299835205,691.5590763092041,1006,1
74,quadbright,26.0,17,1,683.2702159881592,683.2690238952637,811,1
75,quadbright,27.0,17,1,593.651294708252,593.6450958251953,1444,1
76,quadbright,28.0,17,1,1117.499828338623,1117.494821548462,912,1
77,quadbright,29.0,17,1,913.3939743041992,913.3930206298828,1053,1
78,quadbright,30.0,17,1,1989.8180961608887,1989.8109436035156,1202,1
79,quadbright,5.0,17,1,199.0189552307129,592.38600730896,898,1
80,quadbright,6.0,17,1,98.7238883972168,493.4968948364258,1335,1
81,quadbright,7.0,17,1,106.59098625183105,601.2411117553711,1457,1
82,quadbright,8.0,17,1,97.7931022644043,592.8630828857422,1440,1
83,quadbright,9.0,17,1,724.3597507476807,724.3547439575195,886,1
84,quadbright,10.0,17,1,582.0939540863037,582.0930004119873,1242,1
85,quadbright,11.0,20,1,781.1188697814941,781.1179161071777,1024,1
86,quadbright,12.0,23,1,725.5711555480957,725.5702018737793,1404,1
87,quadbright,13.0,20,1,979.7110557556152,979.7101020812988,1324,1
88,quadbright,14.0,23,1,98.57296943664551,879.2400360107422,883,1
89,quadbright,15.0,17,1,977.1850109100342,977.1840572357178,1160,1
90,quadbright,16.0,17,1,1209.2673778533936,1209.266185760498,1210,1
91,quadbright,17.0,17,1,722.491979598999,722.4900722503662,934,1
92,quadbright,18.0,17,1,983.1478595733643,983.1478595733643,1128,1
93,quadbright,19.0,17,1,593.336820602417,593.329906463623,846,1
94,quadbright,20.0,17,1,592.2229290008545,592.2219753265381,1029,1
95,quadbright,21.0,17,1,792.2482490539551,792.2470569610596,1450,1
96,quadbright,22.0,17,0,1714.9949073791504,1714.9930000305176,1043,1
97,quadbright,23.0,17,1,681.6439628601074,681.643009185791,1448,1
98,quadbright,24.0,17,1,628.5190582275391,628.5169124603271,1342,1
99,quadbright,25.0,17,1,681.7238330841064,681.72287940979,1081,1
100,quadbright,26.0,17,1,793.6482429504395,793.6460971832275,1431,1
101,quadbright,27.0,17,1,1310.6839656829834,1310.683012008667,981,1
102,quadbright,28.0,17,1,891.8249607086182,891.8240070343018,1332,1
103,quadbright,29.0,17,0,1673.3331680297852,1673.3319759368896,1284,1
104,quadbright,30.0,17,1,1912.3718738555908,1912.3668670654297,844,1
105,quadbright,5.0,14,1,99.18403625488281,493.9260482788086,1227,1
106,quadbright,6.0,14,1,98.0370044708252,788.7349128723145,1054,1
107,quadbright,7.0,14,0,99.3039608001709,824.2199420928955,1390,1
108,quadbright,8.0,14,1,594.0971374511719,594.0961837768555,1375,1
109,quadbright,9.0,14,1,1011.3809108734131,1011.3799571990967,1158,1
110,quadbright,10.0,14,1,604.435920715332,604.424238204956,1468,1
111,quadbright,11.0,20,1,635.6899738311768,635.688066482544,1376,1
112,quadbright,12.0,21,1,725.1420021057129,725.1410484313965,1203,1
113,quadbright,13.0,20,1,98.2208251953125,780.4989814758301,1124,1
114,quadbright,14.0,21,1,494.2607879638672,494.2598342895508,1098,1
115,quadbright,15.0,14,1,693.1238174438477,693.1228637695312,1217,1
116,quadbright,16.0,14,1,591.7439460754395,591.7420387268066,1081,1
117,quadbright,17.0,14,1,195.15705108642578,1008.7599754333496,936,1
118,quadbright,18.0,14,1,879.5020580291748,879.5011043548584,949,1
119,quadbright,19.0,14,1,1086.3540172576904,1086.3471031188965,1156,1
120,quadbright,20.0,14,1,781.8827629089355,781.8808555603027,853,1
121,quadbright,21.0,14,1,725.2399921417236,725.2390384674072,1191,1
122,quadbright,22.0,20,0,98.8001823425293,1428.9309978485107,969,1
123,quadbright,23.0,14,1,901.5469551086426,901.543140411377,1344,1
124,quadbright,24.0,14,1,1287.1291637420654,1287.1251106262207,845,1
125,quadbright,25.0,14,1,825.4730701446533,825.4721164703369,1497,1
126,quadbright,26.0,14,0,1585.392951965332,1585.3898525238037,1329,1
127,quadbright,27.0,14,0,2319.6980953216553,2319.6940422058105,1241,1
128,quadbright,28.0,14,1,1329.5788764953613,1329.575777053833,1399,1
129,quadbright,29.0,20,1,2001.4171600341797,2001.4159679412842,808,1
130,quadbright,30.0,14,1,1297.2209453582764,1297.2121238708496,1484,1
131,quadbright,5.0,14,1,198.39096069335938,891.6201591491699,1371,1
132,quadbright,6.0,14,1,879.8136711120605,879.8129558563232,874,1
133,quadbright,7.0,17,1,199.02801513671875,688.0602836608887,889,1
134,quadbright,8.0,14,1,582.169771194458,582.1688175201416,1049,1
135,quadbright,9.0,14,1,823.7009048461914,823.6947059631348,1227,1
136,quadbright,10.0,14,1,99.1830825805664,898.486852645874,1448,1
137,quadbright,11.0,17,0,132.31182098388672,2110.5659008026123,1376,1
138,quadbright,12.0,21,1,99.11870956420898,879.3489933013916,976,1
139,quadbright,13.0,18,1,690.2320384979248,690.2279853820801,1472,1
140,quadbright,14.0,21,0,802.6580810546875,802.6523590087891,1435,1
141,quadbright,15.0,14,1,197.2060203552246,1088.4637832641602,1485,1
142,quadbright,16.0,14,1,613.1508350372314,613.149881362915,949,1
143,quadbright,17.0,14,1,1009.3951225280762,1009.3941688537598,1177,1
144,quadbright,18.0,14,1,593.2619571685791,593.2610034942627,1306,1
145,quadbright,19.0,14,1,732.9819202423096,732.9730987548828,822,1
146,quadbright,20.0,14,1,690.7289028167725,690.7219886779785,1292,1
147,quadbright,21.0,14,1,978.1408309936523,978.1408309936523,1171,1
148,quadbright,22.0,23,1,692.1091079711914,692.101001739502,882,1
149,quadbright,23.0,14,1,1279.0980339050293,1279.0961265563965,1049,1
150,quadbright,24.0,14,1,682.5449466705322,682.542085647583,891,1
151,quadbright,25.0,14,0,2068.0599212646484,2068.058967590332,1109,1
152,quadbright,26.0,17,1,1592.505931854248,1592.4999713897705,909,1
153,quadbright,27.0,17,1,747.7402687072754,747.7390766143799,1368,1
154,quadbright,28.0,14,1,1494.5447444915771,1494.5068359375,1485,1
155,quadbright,29.0,20,1,2176.7470836639404,2176.7423152923584,957,1
156,quadbright,30.0,14,0,1584.7129821777344,1584.7060680389404,1404,1
157,quadbright,5.0,11,1,159.06190872192383,587.7199172973633,1343,1
158,quadbright,6.0,11,1,97.64623641967773,493.12901496887207,1229,1
159,quadbright,7.0,17,1,66.50185585021973,494.204044342041,827,1
160,quadbright,8.0,11,1,660.1059436798096,660.1047515869141,1438,1
161,quadbright,9.0,11,1,66.67494773864746,484.4238758087158,1035,1
162,quadbright,10.0,11,0,165.75193405151367,1079.4570446014404,1294,1
163,quadbright,11.0,20,1,758.2941055297852,758.2910060882568,1416,1
164,quadbright,12.0,20,1,65.69099426269531,496.0198402404785,1419,1
165,quadbright,13.0,18,1,321.4561939239502,749.6349811553955,1435,1
166,quadbright,14.0,23,1,591.2818908691406,591.275691986084,1345,1
167,quadbright,15.0,11,1,990.4236793518066,990.4220104217529,975,1
168,quadbright,16.0,11,1,1592.3810005187988,1592.3762321472168,859,1
169,quadbright,17.0,11,1,659.9180698394775,659.9102020263672,1132,1
170,quadbright,18.0,11,1,1407.182216644287,1407.1810245513916,825,1
171,quadbright,19.0,11,1,1415.9259796142578,1415.9200191497803,1148,1
172,quadbright,20.0,11,1,1427.0799160003662,1427.0730018615723,1305,1
173,quadbright,21.0,11,0,1670.5002784729004,1670.4981327056885,1339,1
174,quadbright,22.0,23,1,748.9538192749023,748.953104019165,1255,1
175,quadbright,23.0,11,1,2077.119827270508,2077.117919921875,1109,1
176,quadbright,24.0,11,1,1671.595811843872,1671.5950965881348,1111,1
177,quadbright,25.0,17,0,1318.9167976379395,1318.9127445220947,1010,1
178,quadbright,26.0,17,1,1483.3171367645264,1483.314037322998,841,1
179,quadbright,27.0,17,0,1914.780855178833,1914.7717952728271,1233,1
180,quadbright,28.0,11,0,2407.6340198516846,2407.6321125030518,1018,1
181,quadbright,29.0,18,0,1478.4579277038574,1478.4560203552246,1202,1
182,quadbright,30.0,17,0,3819.15283203125,3819.1511631011963,1322,1
183,quadbright,5.0,11,1,750.1277923583984,750.1277923583984,1339,1
184,quadbright,6.0,11,1,648.8029956817627,648.8020420074463,947,1
185,quadbright,7.0,15,1,98.5107421875,593.0068492889404,904,1
186,quadbright,8.0,11,1,66.05100631713867,1252.0391941070557,1155,1
187,quadbright,9.0,11,1,165.70210456848145,758.5010528564453,1499,1
188,quadbright,10.0,14,1,163.75207901000977,922.4457740783691,1054,1
189,quadbright,11.0,20,1,923.9728450775146,923.9697456359863,1222,1
190,quadbright,12.0,20,1,649.0969657897949,649.0960121154785,883,1
191,quadbright,13.0,17,1,857.4924468994141,857.4872016906738,1267,1
192,quadbright,14.0,23,1,197.62706756591797,728.0161380767822,971,1
193,quadbright,15.0,11,1,1088.5870456695557,1088.580846786499,1065,1
194,quadbright,16.0,11,0,1374.323844909668,1374.3228912353516,1007,1
195,quadbright,17.0,11,1,1285.6578826904297,1285.6528759002686,1107,1
196,quadbright,18.0,11,1,824.6667385101318,824.6657848358154,1479,1
197,quadbright,19.0,11,1,1284.7421169281006,1284.7390174865723,1367,1
198,quadbright,20.0,11,1,1178.039789199829,1178.0388355255127,881,1
199,quadbright,21.0,14,1,725.1489162445068,725.1410484313965,1397,1
200,quadbright,22.0,21,1,1176.0210990905762,1176.0191917419434,1321,1
201,quadbright,23.0,11,0,1295.7518100738525,1295.745849609375,941,1
202,quadbright,24.0,11,0,1087.7501964569092,1087.745189666748,1427,1
203,quadbright,25.0,20,1,625.7431507110596,625.7410049438477,1042,1
204,quadbright,26.0,15,0,1285.6037616729736,1285.6011390686035,1428,1
205,quadbright,27.0,18,0,1541.4438247680664,1541.443109512329,1032,1
206,quadbright,28.0,14,1,1176.7430305480957,1176.7420768737793,942,1
207,quadbright,29.0,20,0,1837.514877319336,1837.5139236450195,1010,1
208,quadbright,30.0,20,1,1176.218032836914,1176.2161254882812,1245,1
209,quadbright,5.0,8,1,828.2451629638672,828.2439708709717,1193,1
210,quadbright,6.0,8,1,99.32804107666016,616.3351535797119,1403,1
211,quadbright,7.0,15,1,814.2232894897461,814.2211437225342,1198,1
212,quadbright,8.0,8,1,656.8131446838379,656.8100452423096,1060,1
213,quadbright,9.0,8,1,66.4210319519043,625.7631778717041,858,1
214,quadbright,10.0,14,1,96.62318229675293,977.7591228485107,928,1
215,quadbright,11.0,18,1,626.3298988342285,626.3258457183838,1231,1
216,quadbright,12.0,18,1,99.03597831726074,625.770092010498,1087,1
217,quadbright,13.0,17,1,829.7560214996338,829.7500610351562,885,1
218,quadbright,14.0,22,1,702.8028964996338,702.7990818023682,1188,0
219,quadbright,14.0,22,1,690.9220218658447,690.9182071685791,1040,1
220,quadbright,15.0,8,1,1177.1321296691895,1177.131175994873,1025,1
221,quadbright,16.0,14,1,822.7167129516602,822.7138519287109,1219,1
222,quadbright,17.0,8,0,1572.9832649230957,1572.9820728302002,1369,1
223,quadbright,18.0,8,1,1913.1598472595215,1913.158893585205,1286,1
224,quadbright,19.0,8,1,1428.7970066070557,1428.7900924682617,1333,1
225,quadbright,20.0,8,1,1079.4460773468018,1079.4439315795898,1039,1
226,quadbright,21.0,14,1,599.6689796447754,599.6668338775635,1094,1
227,quadbright,22.0,21,1,683.0117702484131,683.0108165740967,1482,1
228,quadbright,23.0,14,1,636.3649368286133,636.361837387085,1161,1
229,quadbright,24.0,14,1,712.9631042480469,712.9619121551514,803,1
230,quadbright,25.0,20,1,593.7747955322266,593.7638282775879,1380,1
231,quadbright,26.0,17,1,702.5589942932129,702.5518417358398,1322,1
232,quadbright,27.0,20,1,691.5838718414307,691.5769577026367,1065,1
233,quadbright,28.0,14,1,1076.970100402832,1076.9691467285156,1345,1
234,quadbright,29.0,21,1,780.9901237487793,780.9879779815674,1484,1
235,quadbright,30.0,20,1,890.5620574951172,890.5611038208008,932,1
236,quadbright,5.0,8,1,100.14104843139648,890.4860019683838,1231,1
237,quadbright,6.0,8,1,198.32515716552734,584.1732025146484,1102,1
238,quadbright,7.0,14,1,99.37787055969238,615.2248382568359,1359,1
239,quadbright,8.0,8,1,682.3880672454834,682.387113571167,1225,1
240,quadbright,9.0,8,1,581.8278789520264,581.8266868591309,1156,1
241,quadbright,10.0,12,1,912.1360778808594,912.1348857879639,1011,1
242,quadbright,11.0,18,1,625.5080699920654,625.5052089691162,1158,1
243,quadbright,12.0,18,1,724.2560386657715,724.2531776428223,1241,1
244,quadbright,13.0,15,1,784.2419147491455,784.2409610748291,1071,1
245,quadbright,14.0,22,1,670.0549125671387,670.051097869873,967,1
246,quadbright,15.0,8,1,1652.5261402130127,1652.5170803070068,1394,1
247,quadbright,16.0,14,1,724.139928817749,724.1358757019043,1370,1
248,quadbright,17.0,11,1,1019.8929309844971,1019.8900699615479,865,1
249,quadbright,18.0,8,1,1518.3441638946533,1518.341064453125,950,1
250,quadbright,19.0,8,1,1349.9808311462402,1349.9770164489746,1385,1
251,quadbright,20.0,8,0,1054.54683303833,1054.5437335968018,1296,1
252,quadbright,21.0,12,1,923.9082336425781,923.9010810852051,1121,1
253,quadbright,22.0,20,1,1011.5609169006348,1011.5602016448975,978,1
254,quadbright,23.0,14,1,1109.9369525909424,1109.935998916626,936,1
255,quadbright,24.0,14,0,1109.6491813659668,1109.6479892730713,853,1
256,quadbright,25.0,18,1,724.9138355255127,724.909782409668,917,1
257,quadbright,26.0,17,1,1175.7848262786865,1175.7838726043701,997,1
258,quadbright,27.0,20,1,791.179895401001,791.1770343780518,1173,1
259,quadbright,28.0,12,1,1111.7329597473145,1111.732006072998,1036,1
260,quadbright,29.0,21,1,2076.7619609832764,2076.7581462860107,1467,1
261,quadbright,30.0,18,0,1177.5188446044922,1177.5166988372803,1091,1
262,quadbright,5.0,5,1,791.1338806152344,791.1248207092285,1051,1
263,quadbright,6.0,5,1,264.87016677856445,1012.0079517364502,959,1
264,quadbright,7.0,14,1,136.56377792358398,800.4570007324219,1255,1
265,quadbright,8.0,5,1,780.5030345916748,780.5020809173584,1460,1
266,quadbright,9.0,5,1,132.57527351379395,999.9690055847168,869,1
267,quadbright,10.0,12,1,659.3320369720459,659.3270301818848,1315,1
268,quadbright,11.0,17,1,525.8660316467285,525.8607864379883,1223,1
269,quadbright,12.0,17,1,131.52384757995605,912.700891494751,1143,1
270,quadbright,13.0,15,1,725.3890037536621,725.3789901733398,1291,1
271,quadbright,14.0,21,1,781.862735748291,781.8608283996582,1069,1
272,quadbright,15.0,5,0,797.6820468902588,797.6789474487305,1127,1
273,quadbright,16.0,12,0,992.2060966491699,992.1998977661133,1048,1
274,quadbright,17.0,11,1,789.0470027923584,789.0422344207764,1063,1
275,quadbright,18.0,5,0,1417.1979427337646,1417.191982269287,994,1
276,quadbright,19.0,5,1,945.9760189056396,945.9748268127441,1460,1
277,quadbright,20.0,11,1,791.0857200622559,791.0768985748291,1376,1
278,quadbright,21.0,12,1,790.1649475097656,790.1618480682373,1199,1
279,quadbright,22.0,20,1,792.269229888916,792.2680377960205,1092,1
280,quadbright,23.0,12,1,1936.2189769744873,1936.2168312072754,961,1
281,quadbright,24.0,15,1,1178.1108379364014,1178.109884262085,987,1
282,quadbright,25.0,18,0,1605.6158542633057,1605.6149005889893,1048,1
283,quadbright,26.0,16,0,792.5541400909424,792.5488948822021,1121,1
284,quadbright,27.0,19,1,788.9800071716309,788.9761924743652,901,1
285,quadbright,28.0,12,0,998.9278316497803,998.9230632781982,897,1
286,quadbright,29.0,20,0,990.3421401977539,990.3411865234375,1117,1
287,quadbright,30.0,20,0,1019.8469161987305,1019.8431015014648,1090,1
288,quadbright,5.0,5,1,131.92105293273926,978.8918495178223,1362,1
289,quadbright,6.0,5,1,131.26683235168457,846.6026782989502,1148,1
290,quadbright,7.0,12,1,130.85293769836426,525.8588790893555,987,1
291,quadbright,8.0,5,1,1287.0478630065918,1287.043809890747,1354,1
292,quadbright,9.0,5,0,132.51996040344238,857.0399284362793,877,1
293,quadbright,10.0,11,0,133.620023727417,1275.8381366729736,1295,1
294,quadbright,11.0,17,1,659.2738628387451,659.2659950256348,1257,1
295,quadbright,12.0,17,1,526.2918472290039,526.2899398803711,1205,1
296,quadbright,13.0,14,1,132.11679458618164,669.6779727935791,837,1
297,quadbright,14.0,21,1,922.9509830474854,922.9440689086914,1496,1
298,quadbright,15.0,8,1,264.07790184020996,1142.6191329956055,832,1
299,quadbright,16.0,14,1,849.9000072479248,849.8990535736084,1241,1
300,quadbright,17.0,9,1,1153.1798839569092,1153.1739234924316,1263,1
301,quadbright,18.0,8,0,978.2247543334961,978.2228469848633,910,1
302,quadbright,19.0,5,1,1407.8493118286133,1407.8481197357178,1464,1
303,quadbright,20.0,11,0,132.47108459472656,1375.2119541168213,1273,1
304,quadbright,21.0,11,1,648.5729217529297,648.5719680786133,1272,1
305,quadbright,22.0,18,1,820.979118347168,820.972204208374,827,1
306,quadbright,23.0,12,1,856.9929599761963,856.9920063018799,1406,1
307,quadbright,24.0,15,1,649.9090194702148,649.9080657958984,1011,1
308,quadbright,25.0,20,1,780.0381183624268,780.0371646881104,1142,1
309,quadbright,26.0,17,1,1787.2960567474365,1787.2912883758545,1165,1
310,quadbright,27.0,19,1,912.67991065979,912.6791954040527,1332,1
311,quadbright,28.0,14,0,845.5238342285156,845.5228805541992,1128,1
312,quadbright,29.0,21,1,891.0818099975586,891.075611114502,884,1
313,quadbright,30.0,21,0,658.8912010192871,658.8900089263916,1466,1
314,quadbright,5.0,2,0,133.2070827484131,1506.9692134857178,1036,1
315,quadbright,6.0,2,0,131.30903244018555,1011.350154876709,980,1
316,quadbright,7.0,12,1,130.22518157958984,780.4920673370361,916,1
317,quadbright,8.0,2,0,132.31301307678223,890.3839588165283,1017,1
318,quadbright,9.0,8,1,693.7308311462402,693.7270164489746,1106,1
319,quadbright,10.0,12,1,1122.4210262298584,1122.420072555542,1482,1
320,quadbright,11.0,15,1,748.6271858215332,748.6252784729004,825,1
321,quadbright,12.0,15,1,1527.7209281921387,1527.717113494873,865,1
322,quadbright,13.0,14,1,693.4819221496582,693.4809684753418,989,1
323,quadbright,14.0,20,1,590.7578468322754,590.7549858093262,1177,1
324,quadbright,15.0,8,1,814.49294090271,814.4917488098145,1245,1
325,quadbright,16.0,14,1,592.5407409667969,592.5366878509521,1485,1
326,quadbright,17.0,9,1,923.4869480133057,923.4838485717773,1363,1
327,quadbright,18.0,11,1,96.53711318969727,624.711275100708,1000,1
328,quadbright,19.0,2,1,758.7809562683105,758.7771415710449,1444,1
329,quadbright,20.0,12,1,714.6120071411133,714.611291885376,1128,1
330,quadbright,21.0,11,1,890.3093338012695,890.308141708374,1405,1
331,quadbright,22.0,18,1,615.7991886138916,615.7982349395752,1452,1
332,quadbright,23.0,11,0,1418.2651042938232,1418.2560443878174,990,1
333,quadbright,24.0,14,0,725.2800464630127,725.275993347168,1291,1
334,quadbright,25.0,20,1,647.5830078125,647.5818157196045,1310,1
335,quadbright,26.0,17,0,967.6122665405273,967.6070213317871,808,1
336,quadbright,27.0,18,1,692.9621696472168,692.9543018341064,1256,1
337,quadbright,28.0,15,0,63.86208534240723,1242.447853088379,1194,1
338,quadbright,29.0,21,0,1110.7518672943115,1110.7509136199951,872,1
339,quadbright,5.0,5,1,889.9741172790527,889.9602890014648,992,1
340,quadbright,6.0,5,0,164.47186470031738,1648.2899188995361,815,1
341,quadbright,7.0,11,1,164.46471214294434,682.2199821472168,992,1
342,quadbright,8.0,5,1,1044.6627140045166,1044.6617603302002,822,1
343,quadbright,9.0,8,1,1044.497013092041,1044.4958209991455,971,1
344,quadbright,10.0,12,1,603.3117771148682,603.3070087432861,1206,1
345,quadbright,11.0,15,1,129.7450065612793,648.0538845062256,1380,1
346,quadbright,12.0,15,1,519.2470550537109,519.2451477050781,1484,1
347,quadbright,13.0,12,1,131.4699649810791,659.9452495574951,915,1
348,quadbright,14.0,20,1,659.9109172821045,659.9080562591553,1289,1
349,quadbright,15.0,6,1,1276.413917541504,1276.4127254486084,1405,1
350,quadbright,16.0,13,1,726.1760234832764,726.1650562286377,1269,1
351,quadbright,17.0,8,1,978.6999225616455,978.6980152130127,1107,1
352,quadbright,18.0,11,0,1110.4371547698975,1110.436201095581,966,1
353,quadbright,19.0,2,0,749.5520114898682,749.5508193969727,888,1
354,quadbright,20.0,12,1,880.3670406341553,880.3660869598389,1208,1
355,quadbright,21.0,9,1,896.8832492828369,896.881103515625,1198,1
356,quadbright,22.0,17,1,692.1851634979248,692.1780109405518,1084,1
357,quadbright,23.0,12,0,987.6079559326172,987.6022338867188,816,1
358,quadbright,24.0,15,1,714.9350643157959,714.9341106414795,1355,1
359,quadbright,25.0,19,0,690.540075302124,690.5357837677002,912,1
360,quadbright,26.0,18,1,582.4081897735596,582.4072360992432,999,1
361,quadbright,27.0,18,1,1252.6400089263916,1252.6352405548096,1485,1
362,quadbright,28.0,17,1,956.1338424682617,956.125020980835,1077,1
363,quadbright,5.0,5,1,65.67192077636719,1244.6119785308838,882,1
364,quadbright,6.0,8,1,913.1789207458496,913.1779670715332,1122,1
365,quadbright,7.0,11,1,66.15209579467773,714.4730091094971,839,1
366,quadbright,8.0,5,1,2836.649179458618,2836.642026901245,1308,1
367,quadbright,9.0,6,1,525.9299278259277,525.9270668029785,962,1
368,quadbright,10.0,11,1,595.747709274292,595.7450866699219,1419,1
369,quadbright,11.0,14,1,657.0909023284912,657.088041305542,1117,1
370,quadbright,12.0,14,1,593.0402278900146,593.0349826812744,1048,1
371,quadbright,13.0,12,1,951.200008392334,951.1921405792236,1193,1
372,quadbright,14.0,19,0,692.2500133514404,692.2450065612793,1379,1
373,quadbright,15.0,6,0,812.4759197235107,812.4752044677734,1063,1
374,quadbright,16.0,13,1,660.8378887176514,660.8278751373291,830,1
375,quadbright,17.0,8,0,232.0418357849121,933.5858821868896,908,1
376,quadbright,18.0,12,1,692.8577423095703,692.8539276123047,1464,1
377,quadbright,19.0,5,1,890.6080722808838,890.5999660491943,1147,1
378,quadbright,20.0,11,0,1187.4260902404785,1187.4198913574219,1218,1
379,quadbright,21.0,9,1,977.8680801391602,977.8671264648438,1454,1
380,quadbright,22.0,17,1,1154.3529033660889,1154.3469429016113,1091,1
381,quadbright,23.0,14,0,1021.3828086853027,1021.3789939880371,1030,1
382,quadbright,24.0,15,0,1507.293939590454,1507.2929859161377,1411,1
383,quadbright,25.0,20,1,1177.2701740264893,1177.2689819335938,1372,1
384,quadbright,26.0,18,0,1276.0980129241943,1276.0968208312988,1102,1
385,quadbright,27.0,17,1,1449.803113937378,1449.8000144958496,840,1
386,quadbright,28.0,17,0,1142.5271034240723,1142.5259113311768,1214,1
