trial,condition,eccentricity,magnitude,correct,srt_ms,keyboard_rt_ms,pre_change_ms,valid
1,control,5.0,20,1,99.02811050415039,1593.8560962677002,819,1
2,control,6.0,20,1,100.65412521362305,1122.7431297302246,1016,1
3,control,7.0,20,1,297.3971366882324,1195.1789855957031,890,1
4,control,8.0,20,1,98.53124618530273,1032.9780578613281,1408,1
5,control,9.0,20,1,790.0891304016113,790.0810241699219,1472,1
6,control,10.0,20,1,96.62079811096191,683.6237907409668,1134,1
7,control,11.0,20,1,188.7362003326416,814.6061897277832,1083,1
8,control,12.0,20,1,1079.9388885498047,1079.9379348754883,1086,1
9,control,13.0,20,1,1089.4708633422852,1089.4689559936523,1434,1
10,control,14.0,20,1,198.1639862060547,4290.741920471191,849,1
11,control,15.0,20,1,1085.9949588775635,1085.9861373901367,1203,1
12,control,16.0,20,1,1225.6569862365723,1225.656270980835,898,1
13,control,17.0,20,1,1329.0131092071533,1329.0071487426758,1314,1
14,control,18.0,20,1,2178.4708499908447,2178.469181060791,1189,1
15,control,19.0,20,1,198.3199119567871,899.2202281951904,1154,1
16,control,20.0,20,1,999.8531341552734,999.8457431793213,1172,1
17,control,21.0,20,1,890.6521797180176,890.643835067749,1448,1
18,control,22.0,20,1,989.5899295806885,989.5880222320557,1477,1
19,control,23.0,20,1,901.2103080749512,901.2081623077393,960,1
20,control,24.0,20,1,1186.048984527588,1186.0480308532715,871,1
21,control,25.0,20,1,1022.9928493499756,1022.9849815368652,974,1
22,control,26.0,20,1,791.8269634246826,791.8260097503662,1153,1
23,control,27.0,20,1,781.7699909210205,781.7690372467041,1141,1
24,control,28.0,20,1,792.6359176635742,792.6349639892578,1010,1
25,control,29.0,20,0,2108.7560653686523,2108.753204345703,944,1
26,control,30.0,20,1,983.3018779754639,983.3006858825684,1296,1
27,control,5.0,20,1,933.0670833587646,933.0630302429199,944,1
28,control,6.0,20,1,98.94919395446777,926.4130592346191,1395,1
29,control,7.0,20,1,198.23622703552246,792.3493385314941,1199,1
30,control,8.0,20,1,196.72894477844238,1177.577018737793,977,1
31,control,9.0,20,1,877.9840469360352,877.9830932617188,877,1
32,control,10.0,20,1,692.4028396606445,692.3997402191162,1149,1
33,control,11.0,20,1,199.9528408050537,692.3236846923828,1258,1
34,control,12.0,20,0,1693.1242942810059,1693.120002746582,989,1
35,control,13.0,20,1,792.0770645141602,792.0761108398438,1124,1
36,control,14.0,20,0,2506.9780349731445,2506.974935531616,1286,1
37,control,15.0,20,1,879.6548843383789,879.6541690826416,1010,1
38,control,16.0,20,1,790.5938625335693,790.590763092041,897,1
39,control,17.0,20,1,725.0030040740967,724.9970436096191,1188,1
40,control,18.0,20,1,200.24991035461426,1210.5669975280762,910,1
41,control,19.0,20,0,99.00593757629395,991.4131164550781,1221,1
42,control,20.0,20,1,881.382942199707,881.3819885253906,1045,1
43,control,21.0,20,1,683.5241317749023,683.5229396820068,1216,1
44,control,22.0,20,1,724.6170043945312,724.6160507202148,833,1
45,control,23.0,20,1,1505.9900283813477,1505.9900283813477,866,1
46,control,24.0,20,1,682.4030876159668,682.4021339416504,1177,1
47,control,25.0,20,1,891.6113376617432,891.6101455688477,1305,1
48,control,26.0,20,1,880.1209926605225,880.120038986206,1432,1
49,control,27.0,20,1,791.6748523712158,791.6688919067383,874,1
50,control,28.0,20,1,1617.3551082611084,1617.3498630523682,1098,1
51,control,29.0,23,1,791.9070720672607,791.9061183929443,1420,1
52,control,30.0,20,1,690.3448104858398,690.3378963470459,1031,1
53,control,5.0,17,1,814.0771389007568,814.0759468078613,1273,1
54,control,6.0,17,1,98.86717796325684,593.6849117279053,1454,1
55,control,7.0,17,0,1672.7190017700195,1672.7180480957031,804,1
56,control,8.0,17,1,495.6831932067871,495.6800937652588,1235,1
57,control,9.0,17,1,700.4857063293457,700.4857063293457,1105,1
58,control,10.0,17,1,197.48568534851074,891.9916152954102,1487,1
59,control,11.0,17,1,1011.9271278381348,1011.9259357452393,1342,1
60,control,12.0,23,1,101.56607627868652,2016.2980556488037,1372,1
61,control,13.0,17,1,98.4499454498291,693.0959224700928,1293,1
62,control,14.0,23,0,97.72706031799316,1485.1181507110596,1170,1
63,control,15.0,17,1,1090.7020568847656,1090.6999111175537,1483,1
64,control,16.0,17,1,1279.2441844940186,1279.2420387268066,990,1
65,control,17.0,17,1,759.4318389892578,759.429931640625,1367,1
66,control,18.0,17,1,724.7071266174316,724.7059345245361,1075,1
67,control,19.0,23,1,889.8658752441406,889.8649215698242,1077,1
68,control,20.0,17,1,593.250036239624,593.2490825653076,1230,1
69,control,21.0,17,1,879.8632621765137,879.8611164093018,856,1
70,control,22.0,17,1,1021.2936401367188,1021.2910175323486,808,1
71,control,23.0,17,1,889.7809982299805,889.7769451141357,1242,1
72,control,24.0,17,1,2704.024076461792,2704.0209770202637,1391,1
73,control,25.0,17,1,980.4890155792236,980.4880619049072,972,1
74,control,26.0,17,1,989.9969100952148,989.9938106536865,1110,1
75,control,27.0,17,1,881.0551166534424,881.0539245605469,1195,1
76,control,28.0,17,1,800.4360198974609,800.4319667816162,918,1
77,control,29.0,23,1,912.5900268554688,912.5890731811523,853,1
78,control,30.0,17,1,791.2960052490234,791.2919521331787,1244,1
79,control,5.0,17,1,100.84104537963867,782.1340560913086,1038,1
80,control,6.0,17,1,99.17092323303223,693.15505027771,816,1
81,control,7.0,20,1,393.92614364624023,780.9090614318848,809,1
82,control,8.0,17,1,985.6410026550293,985.6400489807129,1196,1
83,control,9.0,17,1,131.17194175720215,724.7250080108643,936,1
84,control,10.0,17,1,98.5250473022461,878.9181709289551,1220,1
85,control,11.0,17,1,780.4360389709473,780.4350852966309,972,1
86,control,12.0,23,1,890.1829719543457,890.1808261871338,1304,1
87,control,13.0,17,1,780.2879810333252,780.2870273590088,1422,1
88,control,14.0,26,1,791.4829254150391,791.4819717407227,1398,1
89,control,15.0,17,1,881.2310695648193,881.2291622161865,1275,1
90,control,16.0,17,1,715.3711318969727,715.3689861297607,1322,1
91,control,17.0,17,1,813.1630420684814,813.1623268127441,841,1
92,control,18.0,17,1,684.2081546783447,684.2069625854492,876,1
93,control,19.0,23,1,582.5850963592529,582.5839042663574,869,1
94,control,20.0,17,1,1427.8640747070312,1427.8600215911865,1401,1
95,control,21.0,17,1,789.5989418029785,789.592981338501,1442,1
96,control,22.0,17,1,591.1600589752197,591.1550521850586,1080,1
97,control,23.0,17,1,791.8410301208496,791.8400764465332,807,1
98,control,24.0,17,1,616.3098812103271,616.3089275360107,1136,1
99,control,25.0,17,1,978.7089824676514,978.708028793335,1380,1
100,control,26.0,17,1,791.1679744720459,791.1581993103027,1438,1
101,control,27.0,17,1,691.0059452056885,691.0033226013184,980,1
102,control,28.0,17,1,781.0511589050293,781.0502052307129,1426,1
103,control,29.0,20,0,5125.964164733887,5125.959873199463,1217,1
104,control,30.0,17,1,792.9081916809082,792.9022312164307,1081,1
105,control,5.0,14,1,97.50986099243164,889.8358345031738,898,1
106,control,6.0,14,1,97.98026084899902,689.3131732940674,1074,1
107,control,7.0,20,1,99.00307655334473,891.2429809570312,1456,1
108,control,8.0,14,1,198.5180377960205,692.5132274627686,886,1
109,control,9.0,14,0,197.71909713745117,1407.2840213775635,925,1
110,control,10.0,14,1,198.33803176879883,693.2158470153809,1234,1
111,control,11.0,14,1,604.3539047241211,604.34889793396,1122,1
112,control,12.0,21,1,583.1029415130615,583.1022262573242,1451,1
113,control,13.0,14,1,582.7898979187012,582.7887058258057,1056,1
114,control,14.0,26,1,781.6798686981201,781.6789150238037,948,1
115,control,15.0,14,1,681.3912391662598,681.3890933990479,1133,1
116,control,16.0,14,1,978.4677028656006,978.4667491912842,1087,1
117,control,17.0,14,1,2409.97314453125,2409.9700450897217,1376,1
118,control,18.0,14,1,494.5080280303955,494.5049285888672,923,1
119,control,19.0,21,1,801.0580539703369,801.0501861572266,1211,1
120,control,20.0,14,1,726.3259887695312,726.3197898864746,817,1
121,control,21.0,14,1,881.34765625,881.3467025756836,931,1
122,control,22.0,14,1,690.6239986419678,690.6208992004395,1459,1
123,control,23.0,14,1,1024.352788925171,1024.3487358093262,956,1
124,control,24.0,14,1,681.9868087768555,681.9860935211182,1243,1
125,control,25.0,14,1,593.4619903564453,593.461275100708,1366,1
126,control,26.0,14,1,692.6150321960449,692.6088333129883,1264,1
127,control,27.0,14,1,693.1641101837158,693.1581497192383,1135,1
128,control,28.0,14,1,691.0560131072998,691.0221576690674,932,1
129,control,29.0,23,1,782.6769351959229,782.6759815216064,964,1
130,control,30.0,14,1,702.5809288024902,702.5759220123291,904,1
131,control,5.0,14,1,99.38573837280273,690.1569366455078,1186,1
132,control,6.0,14,1,98.68884086608887,593.674898147583,1010,1
133,control,7.0,18,1,614.8500442504883,614.8488521575928,1421,1
134,control,8.0,14,1,89.6139144897461,781.0530662536621,1404,1
135,control,9.0,17,1,197.59726524353027,1000.8292198181152,1397,1
136,control,10.0,14,1,99.1671085357666,604.2041778564453,1145,1
137,control,11.0,14,1,789.7858619689941,789.7810935974121,999,1
138,control,12.0,21,1,624.8500347137451,624.8459815979004,1435,1
139,control,13.0,14,1,1899.3310928344727,1899.3299007415771,900,1
140,control,14.0,24,1,2179.7728538513184,2179.7637939453125,908,1
141,control,15.0,14,1,790.8971309661865,790.8961772918701,1209,1
142,control,16.0,14,1,692.5370693206787,692.5308704376221,1116,1
143,control,17.0,14,1,723.0589389801025,723.0572700500488,893,1
144,control,18.0,14,1,616.3272857666016,616.3263320922852,831,1
145,control,19.0,21,1,725.7428169250488,725.7390022277832,870,1
146,control,20.0,14,1,997.9248046875,997.9138374328613,877,1
147,control,21.0,14,1,593.8751697540283,593.8711166381836,1377,1
148,control,22.0,14,1,892.0331001281738,892.0290470123291,857,1
149,control,23.0,14,1,603.4059524536133,603.3990383148193,1075,1
150,control,24.0,14,1,595.3552722930908,595.350980758667,983,1
151,control,25.0,14,1,1032.7610969543457,1032.754898071289,1254,1
152,control,26.0,14,1,791.144847869873,791.1429405212402,1082,1
153,control,27.0,14,1,581.7842483520508,581.7830562591553,1115,1
154,control,28.0,14,1,593.8148498535156,593.8119888305664,1154,1
155,control,29.0,23,1,691.9331550598145,691.9281482696533,1497,1
156,control,30.0,14,1,915.7350063323975,915.734052658081,930,1
157,control,5.0,11,1,98.88315200805664,792.0541763305664,1001,1
158,control,6.0,11,1,95.84188461303711,780.6398868560791,1347,1
159,control,7.0,18,1,879.2920112609863,879.2898654937744,1276,1
160,control,8.0,11,1,681.6210746765137,681.6191673278809,990,1
161,control,9.0,17,1,484.95006561279297,484.94791984558105,1027,1
162,control,10.0,11,1,881.3769817352295,881.3760280609131,1319,1
163,control,11.0,11,1,879.2440891265869,879.2431354522705,1034,1
164,control,12.0,20,1,879.295825958252,879.2939186096191,1211,1
165,control,13.0,11,1,725.7490158081055,725.7449626922607,825,1
166,control,14.0,24,1,525.4073143005371,525.4051685333252,998,1
167,control,15.0,11,1,813.7891292572021,813.7881755828857,1216,1
168,control,16.0,11,1,792.0382022857666,792.0372486114502,1193,1
169,control,17.0,11,1,684.614896774292,684.6137046813965,1153,1
170,control,18.0,11,1,890.6800746917725,890.6781673431396,1420,1
171,control,19.0,20,1,802.2592067718506,802.2541999816895,1427,1
172,control,20.0,11,1,816.7018890380859,816.7018890380859,1022,1
173,control,21.0,11,1,722.0861911773682,722.0809459686279,1106,1
174,control,22.0,11,1,692.7282810211182,692.7261352539062,1294,1
175,control,23.0,11,1,780.0679206848145,780.0672054290771,935,1
176,control,24.0,11,1,584.1617584228516,584.1608047485352,804,1
177,control,25.0,11,1,691.7297840118408,691.7288303375244,1416,1
178,control,26.0,11,1,978.2841205596924,978.283166885376,995,1
179,control,27.0,11,1,1089.5023345947266,1089.4992351531982,1191,1
180,control,28.0,11,1,1179.4989109039307,1179.4967651367188,1305,1
181,control,29.0,21,1,681.2999248504639,681.2989711761475,922,1
182,control,30.0,11,0,1022.162914276123,1022.1602916717529,1309,1
183,control,5.0,11,1,98.38509559631348,790.4341220855713,1468,1
184,control,6.0,11,1,992.5577640533447,992.5565719604492,1001,1
185,control,7.0,17,1,790.5762195587158,790.571928024292,1065,1
186,control,8.0,11,1,879.8530101776123,879.8511028289795,933,1
187,control,9.0,15,1,526.6430377960205,526.6430377960205,1408,1
188,control,10.0,11,1,98.16575050354004,515.1939392089844,991,1
189,control,11.0,11,1,100.84819793701172,1012.2830867767334,1439,1
190,control,12.0,20,1,494.7371482849121,494.7361946105957,1468,1
191,control,13.0,11,1,714.1752243041992,714.1742706298828,1091,1
192,control,14.0,23,1,98.85597229003906,510.8821392059326,1421,1
193,control,15.0,11,1,527.5812149047852,527.5750160217285,1495,1
194,control,16.0,11,1,889.2550468444824,889.2450332641602,1368,1
195,control,17.0,11,1,90.34585952758789,882.0590972900391,1237,1
196,control,18.0,11,1,682.7540397644043,682.7528476715088,1265,1
197,control,19.0,20,1,494.68088150024414,494.67992782592773,1345,1
198,control,20.0,11,1,980.5521965026855,980.5512428283691,1218,1
199,control,21.0,11,1,692.0638084411621,692.0559406280518,1121,1
200,control,22.0,11,1,682.9872131347656,682.9860210418701,1447,1
201,control,23.0,11,1,699.9669075012207,699.9638080596924,935,1
202,control,24.0,11,1,692.047119140625,692.040205001831,1021,1
203,control,25.0,11,1,689.716100692749,689.7099018096924,1320,1
204,control,26.0,11,1,593.433141708374,593.4321880340576,1388,1
205,control,27.0,11,1,1120.9521293640137,1120.9499835968018,888,1
206,control,28.0,11,1,1020.8749771118164,1020.8709239959717,1223,1
207,control,29.0,21,1,723.2258319854736,723.222017288208,1056,1
208,control,30.0,14,1,630.4361820220947,630.4340362548828,1001,1
209,control,5.0,8,1,98.6478328704834,394.93489265441895,945,1
210,control,6.0,8,1,100.830078125,725.1231670379639,1187,1
211,control,7.0,17,1,99.21097755432129,727.6113033294678,1342,1
212,control,8.0,8,1,193.3891773223877,688.2839202880859,1046,1
213,control,9.0,15,1,792.9730415344238,792.9701805114746,1008,1
214,control,10.0,8,1,781.8789482116699,781.8779945373535,1199,1
215,control,11.0,8,1,99.90191459655762,1275.8190631866455,821,1
216,control,12.0,18,1,96.79102897644043,890.388011932373,1456,1
217,control,13.0,8,1,594.5618152618408,594.5589542388916,983,1
218,control,14.0,23,1,602.5638580322266,602.5569438934326,1449,1
219,control,15.0,8,1,493.5891628265381,493.5872554779053,1218,1
220,control,16.0,8,1,692.4889087677002,692.4879550933838,983,1
221,control,17.0,8,0,624.3488788604736,624.3457794189453,1310,1
222,control,18.0,8,1,693.2942867279053,693.2859420776367,1333,1
223,control,19.0,18,1,681.5001964569092,681.4990043640137,869,1
224,control,20.0,8,1,683.8071346282959,683.8059425354004,994,1
225,control,21.0,8,1,901.0868072509766,901.0839462280273,822,1
226,control,22.0,8,0,1416.822910308838,1416.8179035186768,1400,1
227,control,23.0,8,1,592.987060546875,592.980146408081,1051,1
228,control,24.0,8,1,691.6589736938477,691.6530132293701,802,1
229,control,25.0,8,1,900.1553058624268,900.1491069793701,1166,1
230,control,26.0,8,1,594.6109294891357,594.6018695831299,1410,1
231,control,27.0,8,1,593.8880443572998,593.8820838928223,1214,1
232,control,28.0,8,1,691.6050910949707,691.5912628173828,944,1
233,control,29.0,20,1,691.3158893585205,691.3118362426758,1095,1
234,control,30.0,14,1,601.9308567047119,601.9268035888672,1110,1
235,control,5.0,8,1,90.75522422790527,722.2731113433838,1282,1
236,control,6.0,8,1,100.11792182922363,494.1599369049072,994,1
237,control,7.0,15,1,98.87003898620605,406.36491775512695,949,1
238,control,8.0,8,0,98.61493110656738,1614.621877670288,1200,1
239,control,9.0,14,1,98.83809089660645,494.6911334991455,1023,1
240,control,10.0,8,1,1298.473834991455,1298.4707355499268,1010,1
241,control,11.0,8,1,592.7798748016357,592.771053314209,1102,1
242,control,12.0,18,1,528.7680625915527,528.7618637084961,1014,1
243,control,13.0,8,1,704.0011882781982,703.998327255249,1148,1
244,control,14.0,21,1,990.0679588317871,990.0619983673096,877,1
245,control,15.0,8,1,98.44493865966797,891.6530609130859,829,1
246,control,16.0,8,1,98.18792343139648,780.5047035217285,869,1
247,control,17.0,11,1,793.7099933624268,793.705940246582,1350,1
248,control,18.0,8,1,593.8458442687988,593.8389301300049,1048,1
249,control,19.0,18,1,98.97208213806152,900.7370471954346,1145,1
250,control,20.0,8,0,1579.7429084777832,1579.7398090362549,1146,1
251,control,21.0,8,1,880.7389736175537,880.7389736175537,1088,1
252,control,22.0,11,1,923.1908321380615,923.1817722320557,1418,1
253,control,23.0,8,1,723.635196685791,723.6311435699463,1170,1
254,control,24.0,8,1,637.0470523834229,637.0439529418945,1172,1
255,control,25.0,8,1,723.0780124664307,723.0749130249023,1498,1
256,control,26.0,8,1,484.8442077636719,484.84206199645996,1241,1
257,control,27.0,8,0,1086.3399505615234,1086.3380432128906,870,1
258,control,28.0,8,1,691.6158199310303,691.6089057922363,1333,1
259,control,29.0,20,1,724.5798110961914,724.5728969573975,1410,1
260,control,30.0,12,1,593.559980392456,593.5590267181396,1353,1
261,control,5.0,5,1,199.89299774169922,683.2869052886963,1356,1
262,control,6.0,5,1,889.3158435821533,889.3129825592041,815,1
263,control,7.0,15,1,99.25317764282227,624.1879463195801,1096,1
264,control,8.0,11,1,626.0678768157959,626.060962677002,1296,1
265,control,9.0,14,1,1475.2180576324463,1475.2168655395508,1245,1
266,control,10.0,5,1,100.15702247619629,691.5767192840576,1034,1
267,control,11.0,5,0,1474.6971130371094,1474.696159362793,1373,1
268,control,12.0,17,1,725.6057262420654,725.604772567749,1433,1
269,control,13.0,5,1,682.319164276123,682.3182106018066,1480,1
270,control,14.0,21,1,683.6550235748291,683.6550235748291,1201,1
271,control,15.0,5,1,890.0430202484131,890.0430202484131,1422,1
272,control,16.0,5,1,1088.56201171875,1088.5591506958008,1276,1
273,control,17.0,11,1,592.3440456390381,592.3361778259277,1194,1
274,control,18.0,5,0,1418.0951118469238,1418.0901050567627,1274,1
275,control,19.0,17,1,582.237958908081,582.2370052337646,1198,1
276,control,20.0,11,1,692.4018859863281,692.3990249633789,1397,1
277,control,21.0,5,0,1275.9249210357666,1275.9239673614502,873,1
278,control,22.0,11,1,724.4791984558105,724.4729995727539,1462,1
279,control,23.0,5,1,1021.6512680053711,1021.6403007507324,866,1
280,control,24.0,5,1,1076.6150951385498,1076.612949371338,1278,1
281,control,25.0,5,1,889.1289234161377,889.1279697418213,1152,1
282,control,26.0,5,1,2109.992742538452,2109.985828399658,1243,1
283,control,27.0,11,1,780.858039855957,780.8570861816406,1135,1
284,control,28.0,5,0,791.3720607757568,791.3699150085449,1268,1
285,control,29.0,18,0,1118.6702251434326,1118.6630725860596,804,1
286,control,30.0,12,1,879.9140453338623,879.9128532409668,1413,1
287,control,5.0,5,1,197.5090503692627,692.0480728149414,1011,1
288,control,6.0,5,1,294.99197006225586,682.0518970489502,1087,1
289,control,7.0,14,0,187.08181381225586,2373.6250400543213,1026,1
290,control,8.0,11,1,583.9290618896484,583.928108215332,1129,1
291,control,9.0,12,1,99.86090660095215,692.847728729248,1185,1
292,control,10.0,5,1,822.9331970214844,822.9250907897949,1382,1
293,control,11.0,8,1,692.3263072967529,692.3191547393799,1282,1
294,control,12.0,17,1,690.3538703918457,690.3510093688965,901,1
295,control,13.0,5,1,1088.109016418457,1088.1059169769287,1119,1
296,control,14.0,20,1,98.91200065612793,604.0170192718506,846,1
297,control,15.0,5,1,99.26867485046387,1021.704912185669,929,1
298,control,16.0,5,0,1079.0929794311523,1079.092025756836,1144,1
299,control,17.0,9,1,592.8661823272705,592.8561687469482,1208,1
300,control,18.0,8,1,1088.493824005127,1088.4900093078613,926,1
301,control,19.0,17,1,690.0711059570312,690.0689601898193,986,1
302,control,20.0,11,1,692.0514106750488,692.0483112335205,1422,1
303,control,21.0,8,1,900.6109237670898,900.6059169769287,1411,1
304,control,22.0,9,1,879.4448375701904,879.443883895874,1494,1
305,control,23.0,5,1,827.2740840911865,827.2719383239746,1492,1
306,control,24.0,5,1,978.3422946929932,978.3413410186768,974,1
307,control,25.0,5,0,1231.0261726379395,1231.0190200805664,912,1
308,control,26.0,5,0,691.8079853057861,691.8048858642578,1395,1
309,control,27.0,11,1,1098.6878871917725,1098.6809730529785,1172,1
310,control,28.0,8,1,978.0550003051758,978.0540466308594,1358,1
311,control,29.0,20,1,694.3690776824951,694.3662166595459,1254,1
312,control,30.0,11,1,1011.6329193115234,1011.6329193115234,1011,1
313,control,5.0,2,0,100.45123100280762,1879.8751831054688,819,1
314,control,6.0,2,0,1308.9051246643066,1308.9039325714111,1271,1
315,control,7.0,15,1,97.23281860351562,779.9758911132812,1412,1
316,control,8.0,9,1,98.31905364990234,890.4008865356445,1361,1
317,control,9.0,12,1,98.39010238647461,493.99495124816895,1139,1
318,control,10.0,2,1,1278.6931991577148,1278.691291809082,1393,1
319,control,11.0,8,1,488.1010055541992,488.1000518798828,1115,1
320,control,12.0,15,1,694.3731307983398,694.3700313568115,1099,1
321,control,13.0,2,1,690.9151077270508,690.9129619598389,1351,1
322,control,14.0,20,1,723.2251167297363,723.2210636138916,967,1
323,control,15.0,2,0,930.6628704071045,930.6597709655762,951,1
324,control,16.0,8,1,683.61496925354,683.6140155792236,1223,1
325,control,17.0,9,1,889.6498680114746,889.6379470825195,1013,1
326,control,18.0,8,1,702.9707431793213,702.9650211334229,1090,1
327,control,19.0,15,1,781.4309597015381,781.4300060272217,1432,1
328,control,20.0,9,1,880.6319236755371,880.6309700012207,1288,1
329,control,21.0,8,0,790.2960777282715,790.2898788452148,1360,1
330,control,22.0,9,1,881.2501430511475,881.249189376831,1004,1
331,control,23.0,2,0,881.1051845550537,881.1042308807373,1103,1
332,control,24.0,2,1,791.2211418151855,791.2189960479736,1038,1
333,control,25.0,8,1,888.8590335845947,888.8530731201172,1284,1
334,control,26.0,8,1,923.8331317901611,923.8290786743164,1050,1
335,control,27.0,9,1,624.5467662811279,624.5450973510742,1079,1
336,control,28.0,8,1,682.6581954956055,682.65700340271,1021,1
337,control,29.0,20,1,683.8700771331787,683.8679313659668,862,1
338,control,30.0,11,1,691.6837692260742,691.6768550872803,1031,1
339,control,5.0,5,1,99.08008575439453,901.8819332122803,979,1
340,control,6.0,5,1,98.59013557434082,593.5027599334717,894,1
341,control,7.0,15,1,101.34196281433105,484.20000076293945,1424,1
342,control,8.0,9,1,100.4941463470459,584.8021507263184,1421,1
343,control,9.0,11,1,495.2108860015869,495.2051639556885,981,1
344,control,10.0,2,0,781.8889617919922,781.8880081176758,1188,1
345,control,11.0,6,1,497.6339340209961,497.62773513793945,1162,1
346,control,12.0,15,1,900.8040428161621,900.7949829101562,892,1
347,control,13.0,2,1,395.611047744751,395.5991268157959,937,1
348,control,14.0,18,1,601.848840713501,601.8459796905518,899,1
349,control,15.0,5,1,593.6477184295654,593.646764755249,1122,1
350,control,16.0,8,1,694.6070194244385,694.6032047271729,991,1
351,control,17.0,8,1,592.8142070770264,592.8020477294922,1065,1
352,control,18.0,6,1,595.1800346374512,595.1790809631348,1140,1
353,control,19.0,15,1,782.2389602661133,782.2380065917969,933,1
354,control,20.0,9,1,593.4720039367676,593.4600830078125,1498,1
355,control,21.0,9,1,581.3510417938232,581.3500881195068,1401,1
356,control,22.0,8,1,723.7899303436279,723.7861156463623,1215,1
357,control,23.0,5,0,823.4460353851318,823.4400749206543,991,1
358,control,24.0,2,0,923.3880043029785,923.3870506286621,843,1
359,control,25.0,8,1,696.9389915466309,696.936845779419,1450,1
360,control,26.0,8,0,1077.8229236602783,1077.821969985962,947,1
361,control,27.0,9,1,879.6212673187256,879.6191215515137,998,1
362,control,28.0,6,0,880.669355392456,880.6672096252441,872,1
363,control,29.0,19,0,693.1760311126709,693.173885345459,1019,1
364,control,30.0,9,0,690.4900074005127,690.4878616333008,1469,1
365,control,5.0,5,1,99.03502464294434,799.8099327087402,1146,1
366,control,6.0,5,1,98.87504577636719,495.0220584869385,1108,1
367,control,7.0,14,1,197.2827911376953,792.3939228057861,1262,1
368,control,8.0,8,1,100.85463523864746,594.700813293457,1180,1
369,control,9.0,11,1,99.49588775634766,591.5918350219727,1049,1
370,control,10.0,5,1,594.4488048553467,594.4468975067139,865,1
371,control,11.0,6,1,593.0178165435791,593.0149555206299,1396,1
372,control,12.0,14,1,494.3878650665283,494.3869113922119,1322,1
373,control,13.0,1,0,901.6168117523193,901.6149044036865,941,1
374,control,14.0,18,1,485.28099060058594,485.28003692626953,1223,1
375,control,15.0,5,1,780.7459831237793,780.7450294494629,1349,1
376,control,16.0,6,1,882.7548027038574,882.7540874481201,845,1
377,control,17.0,8,1,1208.5776329040527,1208.5769176483154,818,1
378,control,18.0,6,1,792.3593521118164,792.3552989959717,1138,1
379,control,19.0,14,1,681.2098026275635,681.2088489532471,1186,1
380,control,20.0,8,1,694.7662830352783,694.7591304779053,1145,1
381,control,21.0,9,1,634.7119808197021,634.7060203552246,1230,1
382,control,22.0,8,1,692.8730010986328,692.8720474243164,1416,1
383,control,23.0,8,0,890.1708126068115,890.1607990264893,1318,1
384,control,24.0,5,1,681.9379329681396,681.9369792938232,1228,1
385,control,25.0,6,1,979.4588088989258,979.4578552246094,1269,1
386,control,26.0,9,1,682.4119091033936,682.4109554290771,1178,1
387,control,27.0,8,0,891.120195388794,891.1149501800537,958,1
388,control,28.0,8,1,978.7440299987793,978.7430763244629,1001,1
389,control,29.0,20,1,890.855073928833,890.8522129058838,901,1
390,control,30.0,11,1,879.7421455383301,879.7411918640137,1314,1
1,quadbright,5.0,20,1,100.08907318115234,3695.8701610565186,1207,1
2,quadbright,6.0,20,0,329.50592041015625,329.50305938720703,1106,1
3,quadbright,7.0,20,1,98.86717796325684,1616.5549755096436,1416,1
4,quadbright,8.0,20,1,207.93390274047852,1295.682668685913,809,1
5,quadbright,9.0,20,1,207.93485641479492,2911.760091781616,1345,1
6,quadbright,10.0,20,1,1118.1607246398926,1118.1559562683105,1023,1
7,quadbright,11.0,20,1,880.5840015411377,880.5830478668213,1427,1
8,quadbright,12.0,20,1,195.3258514404297,987.6279830932617,1362,1
9,quadbright,13.0,20,1,4827.6050090789795,4827.598810195923,925,1
10,quadbright,14.0,20,0,200.47593116760254,2476.367235183716,839,1
11,quadbright,15.0,20,1,1098.8941192626953,1098.8900661468506,1378,1
12,quadbright,16.0,20,1,98.94609451293945,1396.0890769958496,889,1
13,quadbright,17.0,20,1,300.46606063842773,2120.695114135742,1486,1
14,quadbright,18.0,20,1,1121.3929653167725,1121.387004852295,986,1
15,quadbright,19.0,20,1,685.7750415802002,685.7740879058838,1010,1
16,quadbright,20.0,20,1,987.4680042266846,987.4670505523682,861,1
17,quadbright,21.0,20,1,832.2298526763916,832.226037979126,947,1
18,quadbright,22.0,20,1,783.3542823791504,783.3530902862549,1070,1
19,quadbright,23.0,20,1,897.3591327667236,897.3510265350342,1077,1
20,quadbright,24.0,20,1,881.0157775878906,881.0150623321533,1050,1
21,quadbright,25.0,20,1,1013.5581493377686,1013.556957244873,896,1
22,quadbright,26.0,20,1,2707.329034805298,2707.326889038086,843,1
23,quadbright,27.0,20,1,898.8101482391357,898.7991809844971,1403,1
24,quadbright,28.0,20,1,990.0548458099365,990.0527000427246,932,1
25,quadbright,29.0,20,0,1098.724126815796,1098.7193584442139,1251,1
26,quadbright,30.0,20,1,1010.2829933166504,1010.2810859680176,825,1
27,quadbright,5.0,20,1,99.2269515991211,794.0528392791748,1227,1
28,quadbright,6.0,23,1,99.88808631896973,880.5060386657715,952,1
29,quadbright,7.0,20,1,297.0421314239502,792.6721572875977,1374,1
30,quadbright,8.0,20,1,791.7890548706055,791.78786277771,1031,1
31,quadbright,9.0,20,1,97.91803359985352,889.0910148620605,912,1
32,quadbright,10.0,20,1,683.3021640777588,683.3009719848633,1357,1
33,quadbright,11.0,20,1,723.2329845428467,723.2279777526855,1074,1
34,quadbright,12.0,20,1,1091.0069942474365,1091.0060405731201,1474,1
35,quadbright,13.0,20,1,594.2871570587158,594.2859649658203,1334,1
36,quadbright,14.0,23,1,912.8358364105225,912.834644317627,933,1
37,quadbright,15.0,20,1,625.5180835723877,625.5128383636475,1041,1
38,quadbright,16.0,20,1,3390.6049728393555,3390.604019165039,840,1
39,quadbright,17.0,20,1,880.4690837860107,880.4681301116943,921,1
40,quadbright,18.0,20,1,823.7895965576172,823.7869739532471,811,1
41,quadbright,19.0,20,1,98.66094589233398,901.3180732727051,1132,1
42,quadbright,20.0,20,1,723.7610816955566,723.7591743469238,865,1
43,quadbright,21.0,20,1,884.1862678527832,884.1841220855713,1294,1
44,quadbright,22.0,20,1,802.4342060089111,802.4320602416992,1397,1
45,quadbright,23.0,20,1,813.8689994812012,813.8680458068848,1107,1
46,quadbright,24.0,20,1,1176.6939163208008,1176.6929626464844,881,1
47,quadbright,25.0,20,1,713.3829593658447,713.3820056915283,988,1
48,quadbright,26.0,20,1,888.944149017334,888.9322280883789,971,1
49,quadbright,27.0,20,1,2110.064744949341,2110.062837600708,1310,1
50,quadbright,28.0,20,1,878.828763961792,878.8278102874756,1381,1
51,quadbright,29.0,23,1,823.9660263061523,823.9650726318359,1457,1
52,quadbright,30.0,20,1,881.3328742980957,881.3319206237793,1248,1
53,quadbright,5.0,17,1,99.77269172668457,789.5798683166504,1077,1
54,quadbright,6.0,23,1,100.59714317321777,791.0621166229248,1001,1
55,quadbright,7.0,17,1,95.78585624694824,820.6946849822998,1426,1
56,quadbright,8.0,17,1,683.819055557251,683.8181018829346,1020,1
57,quadbright,9.0,17,1,881.8798065185547,881.8790912628174,1462,1
58,quadbright,10.0,17,1,617.1290874481201,617.1278953552246,1456,1
59,quadbright,11.0,17,1,681.1668872833252,681.1659336090088,1340,1
60,quadbright,12.0,17,1,1187.5898838043213,1187.586784362793,903,1
61,quadbright,13.0,17,1,96.48799896240234,1019.0451145172119,925,1
62,quadbright,14.0,23,1,792.2468185424805,792.2461032867432,1217,1
63,quadbright,15.0,17,1,90.40093421936035,981.1439514160156,1282,1
64,quadbright,16.0,17,1,1031.9128036499023,1031.911849975586,1203,1
65,quadbright,17.0,17,1,1013.0681991577148,1013.0660533905029,1224,1
66,quadbright,18.0,17,1,880.1679611206055,880.1670074462891,865,1
67,quadbright,19.0,17,1,822.6230144500732,822.6222991943359,1455,1
68,quadbright,20.0,17,1,1296.3337898254395,1296.3316440582275,1455,1
69,quadbright,21.0,17,1,1078.5059928894043,1078.5038471221924,912,1
70,quadbright,22.0,17,1,901.2961387634277,901.2908935546875,1477,1
71,quadbright,23.0,17,1,593.919038772583,593.9178466796875,971,1
72,quadbright,24.0,17,1,921.7281341552734,921.7250347137451,1304,1
73,quadbright,25.0,17,1,492.9769039154053,492.966890335083,1319,1
74,quadbright,26.0,17,1,890.2988433837891,890.2971744537354,1395,1
75,quadbright,27.0,17,1,681.8928718566895,681.891679763794,1002,1
76,quadbright,28.0,17,0,1622.730016708374,1622.7262020111084,1388,1
77,quadbright,29.0,23,1,726.9527912139893,726.94993019104,1261,1
78,quadbright,30.0,17,1,879.2979717254639,879.296064376831,1474,1
79,quadbright,5.0,17,1,636.430025100708,636.4231109619141,1051,1
80,quadbright,6.0,20,1,879.7459602355957,879.7450065612793,1044,1
81,quadbright,7.0,17,1,881.0060024261475,881.005048751831,1350,1
82,quadbright,8.0,17,1,99.64704513549805,791.2180423736572,976,1
83,quadbright,9.0,17,1,98.9689826965332,889.7581100463867,972,1
84,quadbright,10.0,17,1,100.61097145080566,494.48609352111816,1175,1
85,quadbright,11.0,17,1,1024.4653224945068,1024.4641304016113,1397,1
86,quadbright,12.0,17,1,884.7551345825195,884.7541809082031,1004,1
87,quadbright,13.0,17,0,2210.068941116333,2210.059881210327,1374,1
88,quadbright,14.0,20,1,716.1071300506592,716.1061763763428,1165,1
89,quadbright,15.0,17,1,792.8411960601807,792.8340435028076,952,1
90,quadbright,16.0,17,1,585.7899188995361,585.7889652252197,1465,1
91,quadbright,17.0,17,1,889.1141414642334,889.1091346740723,1497,1
92,quadbright,18.0,17,1,725.8658409118652,725.8639335632324,1330,1
93,quadbright,19.0,17,1,985.651969909668,985.6510162353516,1399,1
94,quadbright,20.0,17,1,681.9229125976562,681.9219589233398,1397,1
95,quadbright,21.0,17,1,593.1870937347412,593.1851863861084,1404,1
96,quadbright,22.0,17,1,890.7098770141602,890.7067775726318,1390,1
97,quadbright,23.0,17,1,595.1690673828125,595.1480865478516,1269,1
98,quadbright,24.0,17,1,694.263219833374,694.2610740661621,862,1
99,quadbright,25.0,17,1,692.1677589416504,692.15989112854,1475,1
100,quadbright,26.0,17,1,683.6569309234619,683.6562156677246,1453,1
101,quadbright,27.0,17,1,781.2910079956055,781.2900543212891,1333,1
102,quadbright,28.0,20,1,494.5371150970459,494.53282356262207,862,1
103,quadbright,29.0,20,1,603.0139923095703,603.0111312866211,856,1
104,quadbright,30.0,17,1,582.3938846588135,582.3929309844971,1500,1
105,quadbright,5.0,14,1,100.41022300720215,781.0301780700684,1207,1
106,quadbright,6.0,20,1,98.56986999511719,681.168794631958,872,1
107,quadbright,7.0,14,1,592.353105545044,592.350959777832,827,1
108,quadbright,8.0,14,1,502.7339458465576,502.7318000793457,919,1
109,quadbright,9.0,14,1,197.65877723693848,989.3639087677002,802,1
110,quadbright,10.0,14,1,790.4479503631592,790.438175201416,907,1
111,quadbright,11.0,14,1,100.64196586608887,495.82791328430176,837,1
112,quadbright,12.0,14,1,99.04313087463379,603.0750274658203,815,1
113,quadbright,13.0,20,1,700.7739543914795,700.7670402526855,1089,1
114,quadbright,14.0,20,1,594.7263240814209,594.724178314209,1313,1
115,quadbright,15.0,14,1,691.2558078765869,691.248893737793,1479,1
116,quadbright,16.0,14,1,691.7691230773926,691.7650699615479,1004,1
117,quadbright,17.0,14,1,691.493034362793,691.4899349212646,1215,1
118,quadbright,18.0,14,1,692.5277709960938,692.5258636474609,880,1
119,quadbright,19.0,14,1,525.7351398468018,525.733232498169,834,1
120,quadbright,20.0,14,1,879.2059421539307,879.2049884796143,1417,1
121,quadbright,21.0,14,1,882.2710514068604,882.270097732544,1338,1
122,quadbright,22.0,14,1,979.9141883850098,979.9129962921143,1172,1
123,quadbright,23.0,14,1,583.9958190917969,583.9951038360596,1381,1
124,quadbright,24.0,14,1,725.3110408782959,725.3060340881348,1209,1
125,quadbright,25.0,14,1,792.2351360321045,792.2310829162598,1440,1
126,quadbright,26.0,14,1,991.663932800293,991.6622638702393,1196,1
127,quadbright,27.0,14,1,1407.825231552124,1407.8233242034912,1123,1
128,quadbright,28.0,20,1,797.605037689209,797.6009845733643,1474,1
129,quadbright,29.0,20,1,592.9558277130127,592.9551124572754,1433,1
130,quadbright,30.0,14,0,833.096981048584,833.0948352813721,1042,1
131,quadbright,5.0,14,1,132.70092010498047,1310.9757900238037,1267,1
132,quadbright,6.0,17,1,913.0020141601562,913.0008220672607,1291,1
133,quadbright,7.0,14,1,626.79123878479,626.7871856689453,1372,1
134,quadbright,8.0,14,1,100.07286071777344,626.802921295166,1067,1
135,quadbright,9.0,14,0,1901.9639492034912,1901.9629955291748,902,1
136,quadbright,10.0,14,1,681.5569400787354,681.555986404419,1413,1
137,quadbright,11.0,14,1,636.6047859191895,636.6016864776611,906,1
138,quadbright,12.0,14,1,99.77197647094727,880.3391456604004,1106,1
139,quadbright,13.0,20,1,694.0908432006836,694.0898895263672,1108,1
140,quadbright,14.0,17,1,693.3207511901855,693.3197975158691,1280,1
141,quadbright,15.0,14,1,99.37596321105957,725.8107662200928,1142,1
142,quadbright,16.0,14,1,911.9429588317871,911.9420051574707,1127,1
143,quadbright,17.0,14,1,978.9259433746338,978.9247512817383,1205,1
144,quadbright,18.0,14,1,823.9109516143799,823.9061832427979,1165,1
145,quadbright,19.0,14,1,1094.3901538848877,1094.3870544433594,1336,1
146,quadbright,20.0,14,1,724.4091033935547,724.4069576263428,861,1
147,quadbright,21.0,14,1,594.184160232544,594.1789150238037,1479,1
148,quadbright,22.0,14,1,812.903881072998,812.9029273986816,884,1
149,quadbright,23.0,14,1,1088.244915008545,1088.2339477539062,1296,1
150,quadbright,24.0,14,1,582.5388431549072,582.5378894805908,880,1
151,quadbright,25.0,14,1,690.7899379730225,690.7858848571777,1358,1
152,quadbright,26.0,14,1,990.9470081329346,990.9400939941406,1498,1
153,quadbright,27.0,14,1,682.55615234375,682.5551986694336,1089,1
154,quadbright,28.0,18,1,880.3460597991943,880.3451061248779,956,1
155,quadbright,29.0,17,1,714.1838073730469,714.1838073730469,1098,1
156,quadbright,30.0,17,1,825.4940509796143,825.4830837249756,916,1
157,quadbright,5.0,11,1,198.21572303771973,1483.449935913086,1215,1
158,quadbright,6.0,17,1,791.8448448181152,791.8398380279541,953,1
159,quadbright,7.0,11,1,98.89698028564453,780.7230949401855,910,1
160,quadbright,8.0,11,1,100.54802894592285,594.1140651702881,953,1
161,quadbright,9.0,17,1,691.781759262085,691.7729377746582,913,1
162,quadbright,10.0,11,1,394.87481117248535,592.8988456726074,1045,1
163,quadbright,11.0,11,1,682.4791431427002,682.4781894683838,1060,1
164,quadbright,12.0,11,1,99.27701950073242,626.0709762573242,1344,1
165,quadbright,13.0,18,1,99.29800033569336,625.7889270782471,1089,1
166,quadbright,14.0,17,1,132.15088844299316,625.4489421844482,1384,1
167,quadbright,15.0,11,1,922.7430820465088,922.7409362792969,909,1
168,quadbright,16.0,11,1,502.83074378967285,502.82979011535645,991,1
169,quadbright,17.0,11,1,494.0650463104248,494.0640926361084,1081,1
170,quadbright,18.0,11,1,692.9688453674316,692.9678916931152,892,1
171,quadbright,19.0,11,1,978.6458015441895,978.644847869873,971,1
172,quadbright,20.0,11,1,880.8889389038086,880.8879852294922,1276,1
173,quadbright,21.0,11,1,601.7627716064453,601.7558574676514,1181,1
174,quadbright,22.0,11,1,593.6541557312012,593.6520099639893,813,1
175,quadbright,23.0,11,1,890.8460140228271,890.8419609069824,1387,1
176,quadbright,24.0,11,1,790.5480861663818,790.5468940734863,1023,1
177,quadbright,25.0,11,1,780.7371616363525,780.735969543457,1067,1
178,quadbright,26.0,11,1,723.560094833374,723.5510349273682,872,1
179,quadbright,27.0,11,1,527.440071105957,527.432918548584,1065,1
180,quadbright,28.0,18,1,626.4958381652832,626.4858245849609,846,1
181,quadbright,29.0,17,1,586.2159729003906,586.2138271331787,916,1
182,quadbright,30.0,17,1,585.3409767150879,585.3402614593506,1405,1
183,quadbright,5.0,11,1,197.9081630706787,716.0000801086426,1255,1
184,quadbright,6.0,14,1,911.8881225585938,911.8871688842773,843,1
185,quadbright,7.0,11,1,725.7661819458008,725.7652282714844,1473,1
186,quadbright,8.0,11,1,394.85883712768555,394.85788345336914,990,1
187,quadbright,9.0,17,1,499.2990493774414,499.2959499359131,1089,1
188,quadbright,10.0,11,1,702.146053314209,702.1420001983643,806,1
189,quadbright,11.0,11,1,725.4462242126465,725.4452705383301,1231,1
190,quadbright,12.0,11,1,592.0050144195557,592.0028686523438,1308,1
191,quadbright,13.0,18,1,99.65896606445312,623.4591007232666,1401,1
192,quadbright,14.0,14,1,693.446159362793,693.444013595581,1309,1
193,quadbright,15.0,11,1,781.5268039703369,781.5260887145996,1457,1
194,quadbright,16.0,11,1,880.0339698791504,880.0320625305176,939,1
195,quadbright,17.0,11,1,593.5487747192383,593.5409069061279,944,1
196,quadbright,18.0,11,1,594.4409370422363,594.4349765777588,1261,1
197,quadbright,19.0,11,0,900.8500576019287,900.8469581604004,901,1
198,quadbright,20.0,11,1,791.8360233306885,791.8300628662109,1347,1
199,quadbright,21.0,11,1,592.7608013153076,592.7579402923584,970,1
200,quadbright,22.0,11,1,598.3150005340576,598.3140468597412,1126,1
201,quadbright,23.0,11,1,787.3270511627197,787.3260974884033,1382,1
202,quadbright,24.0,11,0,813.6379718780518,813.6367797851562,1087,1
203,quadbright,25.0,11,1,812.4701976776123,812.4690055847168,1378,1
204,quadbright,26.0,11,0,1286.1559391021729,1286.1449718475342,1067,1
205,quadbright,27.0,11,0,978.3248901367188,978.3239364624023,1106,1
206,quadbright,28.0,17,1,627.7260780334473,627.7198791503906,974,1
207,quadbright,29.0,14,0,591.4111137390137,591.407060623169,1140,1
208,quadbright,30.0,15,0,1474.2851257324219,1474.2839336395264,880,1
209,quadbright,5.0,8,1,198.47583770751953,681.6797256469727,1282,1
210,quadbright,6.0,14,1,99.1971492767334,527.1668434143066,1384,1
211,quadbright,7.0,8,1,99.91002082824707,593.9328670501709,1397,1
212,quadbright,8.0,8,1,94.62308883666992,680.5171966552734,910,1
213,quadbright,9.0,15,1,682.8351020812988,682.8341484069824,1244,1
214,quadbright,10.0,8,1,130.85389137268066,713.0708694458008,963,1
215,quadbright,11.0,8,1,782.4370861053467,782.4361324310303,1080,1
216,quadbright,12.0,8,1,681.0030937194824,681.0019016265869,1048,1
217,quadbright,13.0,17,1,591.9749736785889,591.9680595397949,1438,1
218,quadbright,14.0,14,1,791.5699481964111,791.5689945220947,1194,1
219,quadbright,15.0,8,1,979.4020652770996,979.4013500213623,1444,1
220,quadbright,16.0,8,0,822.3421573638916,822.3381042480469,1423,1
221,quadbright,17.0,8,0,880.5348873138428,880.5339336395264,1114,1
222,quadbright,18.0,8,1,1474.660873413086,1474.658727645874,920,1
223,quadbright,19.0,14,1,922.8270053863525,922.8270053863525,1301,1
224,quadbright,20.0,8,1,812.9463195800781,812.9453659057617,1460,1
225,quadbright,21.0,8,0,1508.8319778442383,1508.8319778442383,804,1
226,quadbright,22.0,8,1,780.9679508209229,780.9679508209229,1351,1
227,quadbright,23.0,8,0,1276.3540744781494,1276.353120803833,1309,1
228,quadbright,24.0,14,1,779.8857688903809,779.8850536346436,1017,1
229,quadbright,25.0,8,1,1287.6479625701904,1287.6338958740234,805,1
230,quadbright,26.0,14,1,823.314905166626,823.3129978179932,1469,1
231,quadbright,27.0,14,1,986.299991607666,986.2880706787109,1002,1
232,quadbright,28.0,17,1,585.4380130767822,585.4370594024658,1001,1
233,quadbright,29.0,17,1,886.8370056152344,886.833906173706,859,1
234,quadbright,30.0,17,1,888.9510631561279,888.9498710632324,1194,1
235,quadbright,5.0,8,1,98.83594512939453,724.9829769134521,1109,1
236,quadbright,6.0,11,1,97.3961353302002,615.8149242401123,1463,1
237,quadbright,7.0,8,1,198.69422912597656,790.5750274658203,1312,1
238,quadbright,8.0,8,1,99.68805313110352,583.6000442504883,1431,1
239,quadbright,9.0,15,1,725.165843963623,725.1651287078857,1349,1
240,quadbright,10.0,8,1,888.7679576873779,888.7650966644287,1348,1
241,quadbright,11.0,8,0,2166.7709350585938,2166.7699813842773,1054,1
242,quadbright,12.0,8,1,1011.260986328125,1011.2590789794922,1260,1
243,quadbright,13.0,17,1,582.7817916870117,582.7808380126953,822,1
244,quadbright,14.0,11,1,781.3570499420166,781.3558578491211,1027,1
245,quadbright,15.0,8,1,914.3471717834473,914.3459796905518,1146,1
246,quadbright,16.0,11,1,230.94606399536133,714.3270969390869,960,1
247,quadbright,17.0,11,0,294.71874237060547,294.7115898132324,1283,1
248,quadbright,18.0,8,0,789.8340225219727,789.8311614990234,1148,1
249,quadbright,19.0,14,1,790.8949851989746,790.8899784088135,1215,1
250,quadbright,20.0,8,0,888.9560699462891,888.948917388916,1229,1
251,quadbright,21.0,11,1,789.8647785186768,789.85595703125,1054,1
252,quadbright,22.0,8,0,1024.209976196289,1024.2071151733398,1138,1
253,quadbright,23.0,11,1,582.7231407165527,582.7221870422363,1081,1
254,quadbright,24.0,14,1,725.4171371459961,725.4161834716797,1200,1
255,quadbright,25.0,8,1,891.5071487426758,891.5071487426758,1400,1
256,quadbright,26.0,14,0,990.0059700012207,990.0050163269043,1408,1
257,quadbright,27.0,14,1,714.3378257751465,714.3368721008301,1451,1
258,quadbright,28.0,15,1,689.5349025726318,689.532995223999,971,1
259,quadbright,29.0,17,1,880.34987449646,880.3489208221436,1186,1
260,quadbright,30.0,17,1,782.3307514190674,782.3288440704346,1271,1
261,quadbright,5.0,5,1,97.06497192382812,1109.9369525909424,1276,1
262,quadbright,6.0,11,1,89.98990058898926,583.6207866668701,801,1
263,quadbright,7.0,5,0,200.24776458740234,890.8767700195312,1040,1
264,quadbright,8.0,5,1,295.76587677001953,988.6949062347412,917,1
265,quadbright,9.0,14,1,99.07197952270508,582.6549530029297,1310,1
266,quadbright,10.0,5,0,100.21710395812988,934.7360134124756,857,1
267,quadbright,11.0,11,1,623.9137649536133,623.9118576049805,1137,1
268,quadbright,12.0,5,1,989.3519878387451,989.3448352813721,838,1
269,quadbright,13.0,15,1,593.1179523468018,593.1158065795898,1242,1
270,quadbright,14.0,11,1,99.36404228210449,618.4999942779541,1130,1
271,quadbright,15.0,5,1,626.2187957763672,626.2147426605225,1178,1
272,quadbright,16.0,11,1,723.5589027404785,723.5536575317383,920,1
273,quadbright,17.0,14,1,594.5379734039307,594.5348739624023,1090,1
274,quadbright,18.0,11,1,691.9617652893066,691.957950592041,1267,1
275,quadbright,19.0,12,1,595.4499244689941,595.4470634460449,1200,1
276,quadbright,20.0,11,1,900.2392292022705,900.2339839935303,874,1
277,quadbright,21.0,11,1,485.9447479248047,485.9437942504883,1373,1
278,quadbright,22.0,11,1,891.2239074707031,891.2210464477539,1343,1
279,quadbright,23.0,11,1,2001.7898082733154,2001.788854598999,1273,1
280,quadbright,24.0,12,1,683.4969520568848,683.4957599639893,829,1
281,quadbright,25.0,5,0,1020.2608108520508,1020.2569961547852,1204,1
282,quadbright,26.0,15,1,525.9640216827393,525.9609222412109,985,1
283,quadbright,27.0,12,1,692.8942203521729,692.8889751434326,1359,1
284,quadbright,28.0,15,1,888.603925704956,888.6001110076904,1318,1
285,quadbright,29.0,15,1,602.8499603271484,602.8482913970947,1235,1
286,quadbright,30.0,16,1,791.6390895843506,791.6378974914551,1442,1
287,quadbright,5.0,5,1,99.05791282653809,681.5319061279297,1382,1
288,quadbright,6.0,8,1,803.3120632171631,803.3051490783691,921,1
289,quadbright,7.0,8,1,100.29888153076172,584.6810340881348,1038,1
290,quadbright,8.0,5,1,198.1370449066162,681.7269325256348,1350,1
291,quadbright,9.0,14,1,585.0858688354492,585.0849151611328,1232,1
292,quadbright,10.0,8,1,996.8292713165283,996.826171875,1205,1
293,quadbright,11.0,11,1,494.1692352294922,494.16184425354004,1093,1
294,quadbright,12.0,5,1,593.4391021728516,593.4381484985352,942,1
295,quadbright,13.0,15,1,498.9781379699707,498.9750385284424,1270,1
296,quadbright,14.0,8,0,890.6922340393066,890.6879425048828,1428,1
297,quadbright,15.0,5,1,891.1001682281494,891.0961151123047,877,1
298,quadbright,16.0,9,1,802.0331859588623,802.0250797271729,946,1
299,quadbright,17.0,14,1,597.4488258361816,597.4457263946533,1083,1
300,quadbright,18.0,11,1,594.548225402832,594.5460796356201,887,1
301,quadbright,19.0,12,1,595.3042507171631,595.299243927002,1124,1
302,quadbright,20.0,11,1,1228.96409034729,1228.9609909057617,1450,1
303,quadbright,21.0,9,1,819.9830055236816,819.9779987335205,959,1
304,quadbright,22.0,11,1,680.8919906616211,680.8910369873047,1341,1
305,quadbright,23.0,9,0,885.887861251831,885.8869075775146,1282,1
306,quadbright,24.0,12,1,495.70703506469727,495.70608139038086,1208,1
307,quadbright,25.0,8,0,692.3861503601074,692.3801898956299,909,1
308,quadbright,26.0,15,1,1209.4669342041016,1209.4647884368896,1023,1
309,quadbright,27.0,12,1,914.0579700469971,914.0567779541016,1195,1
310,quadbright,28.0,14,1,793.787956237793,793.7870025634766,829,1
311,quadbright,29.0,15,1,681.7998886108398,681.7998886108398,1339,1
312,quadbright,30.0,16,1,583.561897277832,583.5609436035156,843,1
313,quadbright,5.0,2,0,99.1218090057373,802.1230697631836,867,1
314,quadbright,6.0,8,1,98.79398345947266,593.8887596130371,872,1
315,quadbright,7.0,8,1,98.92106056213379,880.5978298187256,1302,1
316,quadbright,8.0,2,0,801.138162612915,801.1350631713867,914,1
317,quadbright,9.0,12,1,99.79605674743652,692.7402019500732,1190,1
318,quadbright,10.0,8,1,584.5677852630615,584.5668315887451,1364,1
319,quadbright,11.0,9,1,792.794942855835,792.7939891815186,1481,1
320,quadbright,12.0,2,1,2802.1938800811768,2802.192211151123,937,1
321,quadbright,13.0,14,1,584.0821266174316,584.0809345245361,952,1
322,quadbright,14.0,11,1,583.7092399597168,583.7080478668213,1215,1
323,quadbright,15.0,2,0,914.6478176116943,914.647102355957,1103,1
324,quadbright,16.0,9,0,813.1089210510254,813.107967376709,1285,1
325,quadbright,17.0,12,1,1011.7678642272949,1011.7669105529785,1136,1
326,quadbright,18.0,9,0,1178.328037261963,1178.3268451690674,1097,1
327,quadbright,19.0,11,1,890.9070491790771,890.8970355987549,963,1
328,quadbright,20.0,9,1,891.2210464477539,891.21413230896,981,1
329,quadbright,21.0,9,0,1386.8167400360107,1386.8138790130615,1441,1
330,quadbright,22.0,9,1,822.3397731781006,822.3350048065186,1173,1
331,quadbright,23.0,11,1,912.2822284698486,912.2810363769531,880,1
332,quadbright,24.0,11,1,691.1089420318604,691.1070346832275,1396,1
333,quadbright,25.0,11,1,593.419075012207,593.4150218963623,1113,1
334,quadbright,26.0,14,1,981.2228679656982,981.2219142913818,1005,1
335,quadbright,27.0,11,1,793.3270931243896,793.3261394500732,1148,1
336,quadbright,28.0,14,1,681.992769241333,681.9918155670166,1453,1
337,quadbright,29.0,14,1,797.1389293670654,797.1320152282715,921,1
338,quadbright,30.0,15,1,920.820951461792,920.8178520202637,1169,1
339,quadbright,5.0,5,0,96.8010425567627,1019.8409557342529,1434,1
340,quadbright,6.0,5,1,98.83975982666016,1020.6518173217773,966,1
341,quadbright,7.0,6,1,100.35109519958496,703.3898830413818,846,1
342,quadbright,8.0,5,1,792.0677661895752,792.0651435852051,1144,1
343,quadbright,9.0,12,1,693.4161186218262,693.4149265289307,1244,1
344,quadbright,10.0,6,0,690.5701160430908,690.5648708343506,1401,1
345,quadbright,11.0,9,0,691.4701461791992,691.4639472961426,1343,1
346,quadbright,12.0,2,1,1704.6551704406738,1704.6542167663574,853,1
347,quadbright,13.0,14,1,812.78395652771,812.781810760498,1490,1
348,quadbright,14.0,11,1,1011.0540390014648,1011.0530853271484,913,1
349,quadbright,15.0,5,0,888.2429599761963,888.2429599761963,1499,1
350,quadbright,16.0,11,1,880.2399635314941,880.2390098571777,1420,1
351,quadbright,17.0,12,0,879.5919418334961,879.5909881591797,1155,1
352,quadbright,18.0,11,1,1285.9320640563965,1285.9289646148682,1040,1
353,quadbright,19.0,11,1,715.6538963317871,715.6519889831543,1282,1
354,quadbright,20.0,9,0,890.6111717224121,890.6099796295166,1426,1
355,quadbright,21.0,11,1,781.2900543212891,781.2891006469727,1238,1
356,quadbright,22.0,9,0,583.9939117431641,583.9929580688477,1064,1
357,quadbright,23.0,11,1,987.3511791229248,987.3461723327637,1146,1
358,quadbright,24.0,11,1,888.930082321167,888.9238834381104,1206,1
359,quadbright,25.0,11,1,1177.5789260864258,1177.5779724121094,909,1
360,quadbright,26.0,14,0,812.2868537902832,812.2859001159668,1434,1
361,quadbright,27.0,11,0,1011.7049217224121,1011.7037296295166,1124,1
362,quadbright,28.0,12,1,932.448148727417,932.4450492858887,996,1
363,quadbright,29.0,14,1,691.638708114624,691.6358470916748,1155,1
364,quadbright,30.0,15,1,996.0668087005615,996.0639476776123,971,1
365,quadbright,5.0,8,1,101.72915458679199,697.0911026000977,1309,1
366,quadbright,6.0,5,1,194.77105140686035,689.3887519836426,1154,1
367,quadbright,7.0,6,1,296.0200309753418,791.4409637451172,1111,1
368,quadbright,8.0,5,0,99.16400909423828,889.0981674194336,838,1
369,quadbright,9.0,11,1,97.9759693145752,625.2460479736328,1113,1
370,quadbright,10.0,8,1,98.9840030670166,1021.1527347564697,1002,1
371,quadbright,11.0,11,1,682.4650764465332,682.4641227722168,1302,1
372,quadbright,12.0,1,1,691.972017288208,691.967248916626,1228,1
373,quadbright,13.0,12,1,582.3631286621094,582.3609828948975,1322,1
374,quadbright,14.0,9,1,681.7870140075684,681.786060333252,1047,1
375,quadbright,15.0,8,1,785.1061820983887,785.1040363311768,1081,1
376,quadbright,16.0,11,0,482.6669692993164,482.6662540435791,1403,1
377,quadbright,17.0,14,1,493.06797981262207,493.06201934814453,1354,1
378,quadbright,18.0,11,1,526.7300605773926,526.7271995544434,1133,1
379,quadbright,19.0,9,0,692.4476623535156,692.4407482147217,1496,1
380,quadbright,20.0,11,1,781.0361385345459,781.0349464416504,1496,1
381,quadbright,21.0,11,1,785.4232788085938,785.4211330413818,1119,1
382,quadbright,22.0,11,1,693.1591033935547,693.152904510498,916,1
383,quadbright,23.0,10,1,726.7670631408691,726.7651557922363,1406,1
384,quadbright,24.0,9,1,1019.7927951812744,1019.7887420654297,1011,1
385,quadbright,25.0,9,0,891.2901878356934,891.2861347198486,1449,1
386,quadbright,26.0,15,1,691.4958953857422,691.4918422698975,900,1
387,quadbright,27.0,12,1,501.97696685791016,501.97291374206543,1057,1
388,quadbright,28.0,12,1,790.9152507781982,790.9109592437744,1445,1
389,quadbright,29.0,12,0,593.0690765380859,593.0628776550293,956,1
390,quadbright,30.0,14,1,1484.1430187225342,1484.1399192810059,975,1
