trial,condition,eccentricity,magnitude,correct,srt_ms,keyboard_rt_ms,pre_change_ms,valid
1,control,5.0,20,1,98.06108474731445,2902.815103530884,819,1
2,control,6.0,20,1,98.92916679382324,825.5281448364258,1473,1
3,control,7.0,20,1,99.36809539794922,492.4299716949463,1174,1
4,control,8.0,20,1,99.27868843078613,594.412088394165,854,0
5,control,8.0,20,1,132.88569450378418,625.4308223724365,1356,1
6,control,9.0,20,1,296.0529327392578,692.3410892486572,1163,0
7,control,9.0,20,1,691.7130947113037,691.709041595459,975,1
8,control,10.0,20,1,593.1398868560791,593.1389331817627,913,1
9,control,11.0,20,1,601.5310287475586,601.5288829803467,1334,1
10,control,12.0,20,1,494.37403678894043,494.3680763244629,921,1
11,control,13.0,20,1,500.4692077636719,500.46229362487793,972,1
12,control,14.0,20,1,495.33891677856445,495.3320026397705,993,1
13,control,15.0,20,1,890.5251026153564,890.5229568481445,957,1
14,control,16.0,20,1,495.01895904541016,495.01800537109375,1145,1
15,control,17.0,20,1,585.3300094604492,585.3288173675537,1442,1
16,control,18.0,20,1,527.3499488830566,527.3489952087402,1195,1
17,control,19.0,20,1,624.9260902404785,624.9198913574219,1041,1
18,control,20.0,20,1,494.5669174194336,494.5647716522217,1250,1
19,control,21.0,20,1,595.3009128570557,595.2999591827393,822,1
20,control,22.0,20,1,495.3181743621826,495.3153133392334,1046,1
21,control,23.0,20,1,694.2331790924072,694.2322254180908,845,1
22,control,24.0,20,1,524.2648124694824,524.2609977722168,934,1
23,control,25.0,20,1,504.5158863067627,504.5130252838135,808,1
24,control,26.0,20,1,593.7731266021729,593.7719345092773,1397,1
25,control,27.0,20,1,593.8520431518555,593.8510894775391,1196,1
26,control,28.0,20,1,484.59911346435547,484.59696769714355,1008,1
27,control,29.0,20,1,602.7059555053711,602.7021408081055,1254,1
28,control,30.0,20,1,790.4648780822754,790.4622554779053,866,1
29,control,5.0,20,1,98.60467910766602,593.4908390045166,1408,1
30,control,6.0,20,1,494.3580627441406,494.3559169769287,1394,0
31,control,6.0,20,1,98.21486473083496,492.8410053253174,1409,1
32,control,7.0,20,1,98.1149673461914,493.88980865478516,1392,1
33,control,8.0,20,1,101.14002227783203,503.7519931793213,840,1
34,control,9.0,20,1,502.4130344390869,502.4120807647705,1145,1
35,control,10.0,20,1,502.66170501708984,502.6576519012451,1013,1
36,control,11.0,20,1,591.7220115661621,591.7220115661621,1443,1
37,control,12.0,20,1,881.9921016693115,881.9899559020996,965,1
38,control,13.0,20,1,99.29513931274414,592.3731327056885,870,0
39,control,13.0,20,1,386.6078853607178,386.60693168640137,832,1
40,control,14.0,20,1,495.2890872955322,495.2871799468994,1063,1
41,control,15.0,20,1,592.1049118041992,592.1008586883545,1204,1
42,control,16.0,20,1,492.88225173950195,492.88010597229004,857,1
43,control,17.0,20,1,491.3768768310547,491.37282371520996,1328,1
44,control,18.0,20,1,494.86494064331055,494.8568344116211,990,1
45,control,19.0,20,1,494.8878288269043,494.8868751525879,1056,1
46,control,20.0,20,1,493.52097511291504,493.5147762298584,927,1
47,control,21.0,20,0,991.8332099914551,991.8332099914551,1271,1
48,control,22.0,20,1,492.28382110595703,492.2831058502197,825,1
49,control,23.0,20,1,702.8951644897461,702.8930187225342,874,1
50,control,24.0,20,1,494.08912658691406,494.08793449401855,971,1
51,control,25.0,20,1,505.9669017791748,505.9618949890137,847,1
52,control,26.0,20,1,396.12579345703125,396.12483978271484,1234,1
53,control,27.0,20,1,495.6541061401367,495.6531524658203,1019,1
54,control,28.0,20,1,492.5799369812012,492.5799369812012,1322,1
55,control,29.0,20,1,692.7437782287598,692.7390098571777,1204,1
56,control,30.0,20,1,593.3268070220947,593.32275390625,1412,1
57,control,5.0,17,1,99.66588020324707,494.18187141418457,1247,1
58,control,6.0,17,1,99.67970848083496,385.3769302368164,1034,1
59,control,7.0,17,1,97.05805778503418,483.9630126953125,1060,1
60,control,8.0,17,1,98.51694107055664,494.2140579223633,1186,1
61,control,9.0,17,1,394.99807357788086,394.99378204345703,983,1
62,control,10.0,17,1,494.89808082580566,494.89307403564453,852,1
63,control,11.0,17,1,593.0869579315186,593.0860042572021,1244,1
64,control,12.0,17,1,690.136194229126,690.1340484619141,960,0
65,control,12.0,17,1,494.80509757995605,494.80414390563965,1496,1
66,control,13.0,17,1,494.11678314208984,494.1141605377197,1196,1
67,control,14.0,17,1,624.5520114898682,624.5508193969727,1229,1
68,control,15.0,17,1,494.72594261169434,494.72498893737793,1482,1
69,control,16.0,17,1,515.5131816864014,515.5119895935059,1152,1
70,control,17.0,17,1,1087.2461795806885,1087.2440338134766,1442,1
71,control,18.0,17,1,492.1541213989258,492.1529293060303,1384,1
72,control,19.0,17,1,494.4489002227783,494.4448471069336,1147,1
73,control,20.0,17,1,504.67872619628906,504.67586517333984,849,0
74,control,20.0,17,1,585.9789848327637,585.9782695770264,935,1
75,control,21.0,23,1,483.1717014312744,483.170747756958,988,1
76,control,22.0,17,1,495.4860210418701,495.4848289489746,1409,1
77,control,23.0,17,1,504.8518180847168,504.8508644104004,874,1
78,control,24.0,17,1,792.1299934387207,792.1280860900879,1476,1
79,control,25.0,17,1,493.9539432525635,493.94989013671875,816,1
80,control,26.0,17,1,482.71799087524414,482.71703720092773,1428,1
81,control,27.0,17,1,494.78602409362793,494.7812557220459,1217,1
82,control,28.0,17,1,501.94668769836426,501.94406509399414,1366,1
83,control,29.0,17,1,494.4889545440674,494.48680877685547,1124,1
84,control,30.0,17,1,493.21699142456055,493.21508407592773,1340,1
85,control,5.0,17,1,99.14898872375488,495.6247806549072,877,1
86,control,6.0,17,1,100.11601448059082,393.95809173583984,1492,1
87,control,7.0,17,1,98.90198707580566,526.0779857635498,1317,1
88,control,8.0,17,1,100.03113746643066,593.9509868621826,852,1
89,control,9.0,17,1,98.77920150756836,494.7934150695801,1201,1
90,control,10.0,17,1,395.68376541137695,395.6789970397949,910,1
91,control,11.0,17,1,593.4000015258789,593.397855758667,1047,1
92,control,12.0,17,1,595.268726348877,595.2649116516113,1185,1
93,control,13.0,17,1,427.5071620941162,427.501916885376,946,1
94,control,14.0,17,1,595.1077938079834,595.1046943664551,878,1
95,control,15.0,17,1,493.13807487487793,493.1328296661377,963,1
96,control,16.0,17,1,491.894006729126,491.88923835754395,1062,1
97,control,17.0,17,1,598.2210636138916,598.2139110565186,998,1
98,control,18.0,17,1,524.9810218811035,524.9800682067871,885,1
99,control,19.0,17,1,494.05789375305176,494.05407905578613,897,1
100,control,20.0,17,1,604.9039363861084,604.8979759216309,1045,1
101,control,21.0,23,1,593.9762592315674,593.9750671386719,1162,1
102,control,22.0,17,1,495.0869083404541,495.0850009918213,1176,1
103,control,23.0,17,1,691.5760040283203,691.5721893310547,941,1
104,control,24.0,17,1,495.8970546722412,495.8930015563965,1318,1
105,control,25.0,17,1,494.96912956237793,494.95601654052734,991,1
106,control,26.0,17,1,526.1380672454834,526.1282920837402,913,1
107,control,27.0,17,1,493.4518337249756,493.4508800506592,1341,1
108,control,28.0,17,1,690.777063369751,690.7761096954346,881,1
109,control,29.0,17,1,692.1348571777344,692.1327114105225,1207,1
110,control,30.0,17,1,494.88306045532227,494.88210678100586,1167,1
111,control,5.0,14,1,99.31612014770508,594.7701930999756,1427,1
112,control,6.0,14,1,103.95693778991699,493.58105659484863,932,1
113,control,7.0,14,1,105.37219047546387,403.44786643981934,1385,1
114,control,8.0,14,1,98.2351303100586,624.2108345031738,844,1
115,control,9.0,14,1,527.7650356292725,527.756929397583,1416,1
116,control,10.0,14,1,297.3518371582031,494.61913108825684,937,1
117,control,11.0,14,1,99.18904304504395,396.2681293487549,1253,1
118,control,12.0,14,1,526.432991027832,526.4320373535156,1021,1
119,control,13.0,14,1,603.8961410522461,603.8930416107178,1031,1
120,control,14.0,14,1,392.14086532592773,392.136812210083,1347,1
121,control,15.0,14,1,602.118968963623,602.1111011505127,1243,1
122,control,16.0,14,1,595.5519676208496,595.5510139465332,1252,1
123,control,17.0,14,1,592.1039581298828,592.0901298522949,1317,1
124,control,18.0,14,1,493.0300712585449,493.0260181427002,1122,1
125,control,19.0,14,1,484.2197895050049,484.2188358306885,1450,1
126,control,20.0,14,1,528.2542705535889,528.2542705535889,1387,1
127,control,21.0,21,1,500.9431838989258,500.9422302246094,1134,1
128,control,22.0,14,1,497.0271587371826,497.0262050628662,985,1
129,control,23.0,14,1,595.2649116516113,595.2639579772949,840,1
130,control,24.0,14,1,494.7681427001953,494.7640895843506,1184,1
131,control,25.0,14,1,614.8960590362549,614.8948669433594,1283,1
132,control,26.0,14,1,791.4857864379883,791.4760112762451,811,1
133,control,27.0,14,1,979.3100357055664,979.30908203125,1111,1
134,control,28.0,14,0,1590.898036956787,1590.8942222595215,1208,1
135,control,29.0,14,1,592.1380519866943,592.1311378479004,847,1
136,control,30.0,14,1,504.3509006500244,504.34303283691406,1166,1
137,control,5.0,14,1,98.3128547668457,496.7169761657715,1428,1
138,control,6.0,14,1,100.1441478729248,494.88306045532227,1032,1
139,control,7.0,14,1,99.07007217407227,495.0263500213623,945,1
140,control,8.0,14,1,98.74582290649414,494.78983879089355,1307,1
141,control,9.0,14,1,200.04796981811523,495.38588523864746,996,1
142,control,10.0,14,1,624.9649524688721,624.9608993530273,1374,1
143,control,11.0,14,1,494.067907333374,494.0600395202637,1257,1
144,control,12.0,14,1,492.8407669067383,492.83885955810547,1025,1
145,control,13.0,14,1,396.0840702056885,396.08287811279297,983,1
146,control,14.0,14,1,495.0270652770996,495.0230121612549,1210,1
147,control,15.0,14,1,494.2300319671631,494.22621726989746,1025,1
148,control,16.0,14,1,494.23909187316895,494.23789978027344,1310,1
149,control,17.0,14,1,493.51000785827637,493.50571632385254,1071,1
150,control,18.0,14,1,690.925121307373,690.9210681915283,950,1
151,control,19.0,14,1,582.2100639343262,582.2091102600098,914,1
152,control,20.0,14,1,601.4902591705322,601.4881134033203,1204,1
153,control,21.0,21,1,593.9860343933105,593.9838886260986,874,1
154,control,22.0,14,1,495.6479072570801,495.64480781555176,1291,1
155,control,23.0,14,1,504.98199462890625,504.9779415130615,896,1
156,control,24.0,14,1,494.62103843688965,494.61889266967773,1348,1
157,control,25.0,14,1,505.0821304321289,505.0790309906006,1273,1
158,control,26.0,14,1,594.5689678192139,594.5639610290527,1022,1
159,control,27.0,14,1,691.1191940307617,691.1101341247559,835,1
160,control,28.0,17,1,684.9179267883301,684.9169731140137,922,1
161,control,29.0,14,1,593.4710502624512,593.4650897979736,920,1
162,control,30.0,14,0,992.5429821014404,992.5398826599121,943,1
163,control,5.0,11,1,100.18515586853027,494.4109916687012,1491,1
164,control,6.0,11,1,99.07984733581543,495.26500701904297,1202,1
165,control,7.0,11,1,98.65498542785645,493.0751323699951,966,1
166,control,8.0,11,1,627.2521018981934,627.2480487823486,974,1
167,control,9.0,11,1,100.16417503356934,494.4319725036621,1225,1
168,control,10.0,11,1,298.4600067138672,495.6481456756592,1234,1
169,control,11.0,11,1,584.0771198272705,584.075927734375,1062,1
170,control,12.0,11,1,627.2528171539307,627.2487640380859,1034,1
171,control,13.0,11,1,922.4436283111572,922.4398136138916,1263,1
172,control,14.0,11,1,493.2529926300049,493.24917793273926,1134,1
173,control,15.0,11,0,988.7430667877197,988.7380599975586,907,1
174,control,16.0,11,1,593.5020446777344,593.4998989105225,1099,1
175,control,17.0,11,1,625.1232624053955,625.1220703125,1243,1
176,control,18.0,11,1,593.3308601379395,593.3260917663574,908,1
177,control,19.0,11,1,601.7751693725586,601.7711162567139,918,1
178,control,20.0,11,1,494.5547580718994,494.5509433746338,866,1
179,control,21.0,20,1,1592.5469398498535,1592.538833618164,1158,1
180,control,22.0,11,1,482.8910827636719,482.89012908935547,1021,1
181,control,23.0,11,1,691.8048858642578,691.7986869812012,1370,1
182,control,24.0,11,1,494.88091468811035,494.8761463165283,1046,1
183,control,25.0,11,1,494.14968490600586,494.1427707672119,1105,1
184,control,26.0,11,1,493.1211471557617,493.1182861328125,1320,1
185,control,27.0,11,1,595.879316329956,595.8781242370605,1330,1
186,control,28.0,17,1,1088.0041122436523,1088.0019664764404,912,1
187,control,29.0,11,1,693.0251121520996,693.0220127105713,1252,1
188,control,30.0,17,1,691.9710636138916,691.9679641723633,1005,0
189,control,30.0,17,1,494.59314346313477,494.5862293243408,1457,1
190,control,5.0,11,1,98.79517555236816,494.11582946777344,1316,1
191,control,6.0,11,1,101.2580394744873,495.35107612609863,1468,1
192,control,7.0,11,1,297.69277572631836,494.92812156677246,1432,1
193,control,8.0,11,1,495.31102180480957,495.30911445617676,1102,1
194,control,9.0,11,1,495.2850341796875,495.27907371520996,1063,1
195,control,10.0,11,1,496.9668388366699,496.95897102355957,869,1
196,control,11.0,11,1,497.01881408691406,497.01690673828125,1107,1
197,control,12.0,11,1,594.8877334594727,594.8798656463623,1004,1
198,control,13.0,11,1,494.7850704193115,494.77505683898926,1437,1
199,control,14.0,11,1,395.5967426300049,395.59197425842285,1467,1
200,control,15.0,14,1,495.0909614562988,495.0900077819824,1180,1
201,control,16.0,11,1,593.4548377990723,593.4510231018066,1032,1
202,control,17.0,11,1,493.78180503845215,493.77989768981934,1443,1
203,control,18.0,11,1,493.72410774230957,493.71886253356934,1119,1
204,control,19.0,11,1,484.33899879455566,484.33804512023926,859,1
205,control,20.0,11,1,602.5540828704834,602.5509834289551,1389,1
206,control,21.0,20,1,492.6779270172119,492.6760196685791,999,1
207,control,22.0,11,1,493.7911033630371,493.78108978271484,1065,1
208,control,23.0,11,1,591.9468402862549,591.9420719146729,1222,1
209,control,24.0,11,1,703.8350105285645,703.8319110870361,1365,1
210,control,25.0,11,1,691.4138793945312,691.4088726043701,953,1
211,control,26.0,11,0,921.3240146636963,921.3230609893799,822,1
212,control,27.0,11,0,1120.143175125122,1120.1379299163818,1288,1
213,control,28.0,15,1,494.19307708740234,494.189977645874,1276,1
214,control,29.0,11,1,692.3291683197021,692.3272609710693,984,1
215,control,30.0,17,1,801.3381958007812,801.3339042663574,897,1
216,control,5.0,8,1,98.90508651733398,494.8139190673828,1300,1
217,control,6.0,8,1,98.94204139709473,495.2120780944824,919,1
218,control,7.0,8,1,98.44493865966797,391.4308547973633,1159,1
219,control,8.0,8,1,494.3990707397461,494.39382553100586,929,0
220,control,8.0,8,1,199.2349624633789,495.35298347473145,852,1
221,control,9.0,8,1,98.49071502685547,393.1107521057129,1487,1
222,control,10.0,8,1,427.8268814086914,427.825927734375,1377,1
223,control,11.0,8,1,494.081974029541,494.0779209136963,869,1
224,control,12.0,8,0,384.8400115966797,384.8390579223633,1324,1
225,control,13.0,8,1,503.3249855041504,503.32021713256836,1142,1
226,control,14.0,8,1,395.2009677886963,395.2000141143799,1285,1
227,control,15.0,14,1,494.43602561950684,494.4319725036621,1170,1
228,control,16.0,8,1,594.3169593811035,594.3160057067871,812,1
229,control,17.0,8,1,593.91188621521,593.9090251922607,1144,1
230,control,18.0,8,1,495.2080249786377,495.19991874694824,1373,1
231,control,19.0,8,1,603.370189666748,603.3658981323242,1398,1
232,control,20.0,8,1,494.17972564697266,494.17686462402344,1126,1
233,control,21.0,18,1,416.3987636566162,416.3987636566162,991,1
234,control,22.0,8,1,493.59583854675293,493.5879707336426,1229,1
235,control,23.0,8,0,1111.1080646514893,1111.1071109771729,1213,1
236,control,24.0,8,1,680.7541847229004,680.7520389556885,1440,1
237,control,25.0,8,1,395.4119682312012,395.37906646728516,1468,1
238,control,26.0,14,1,495.0590133666992,495.0580596923828,990,1
239,control,27.0,14,1,628.0848979949951,628.0810832977295,1277,1
240,control,28.0,15,1,527.1298885345459,527.1291732788086,1311,1
241,control,29.0,8,1,682.2879314422607,682.2869777679443,864,1
242,control,30.0,15,1,592.4050807952881,592.400074005127,1097,1
243,control,5.0,8,1,2803.4210205078125,2803.415060043335,1309,1
244,control,6.0,8,1,392.95506477355957,392.9469585418701,1232,1
245,control,7.0,8,1,98.62208366394043,493.5147762298584,1165,1
246,control,8.0,8,1,396.3968753814697,396.3937759399414,1149,1
247,control,9.0,8,1,394.3321704864502,394.3300247192383,1206,1
248,control,10.0,8,1,393.449068069458,393.4452533721924,1073,1
249,control,11.0,8,1,531.7380428314209,531.7349433898926,1366,1
250,control,12.0,11,1,526.4182090759277,526.4132022857666,1245,1
251,control,13.0,8,1,428.851842880249,428.8508892059326,1269,1
252,control,14.0,8,1,426.75280570983887,426.75018310546875,1164,1
253,control,15.0,12,1,528.0940532684326,528.0861854553223,1118,1
254,control,16.0,8,0,889.8460865020752,889.8341655731201,1424,1
255,control,17.0,8,1,699.0830898284912,699.077844619751,1328,1
256,control,18.0,8,1,681.4367771148682,681.4360618591309,1391,1
257,control,19.0,8,1,484.6510887145996,484.6501350402832,1177,1
258,control,20.0,8,1,496.84977531433105,496.84810638427734,952,1
259,control,21.0,18,1,493.68882179260254,493.67761611938477,1363,1
260,control,22.0,8,1,495.9070682525635,495.90182304382324,950,1
261,control,23.0,11,1,438.122034072876,438.12012672424316,1263,1
262,control,24.0,8,1,716.801643371582,716.8006896972656,1497,1
263,control,25.0,8,1,692.5680637359619,692.5618648529053,1202,1
264,control,26.0,14,1,461.4729881286621,461.4672660827637,827,1
265,control,27.0,14,1,526.4120101928711,526.40700340271,1242,1
266,control,28.0,14,1,692.7571296691895,692.7518844604492,1367,1
267,control,29.0,8,1,603.3468246459961,603.3380031585693,1174,1
268,control,30.0,15,1,691.1427974700928,691.14089012146,880,0
269,control,30.0,15,1,684.4899654388428,684.4887733459473,1447,1
270,control,5.0,5,1,99.17092323303223,396.03304862976074,1070,1
271,control,6.0,5,1,493.3309555053711,493.32594871520996,1163,1
272,control,7.0,5,1,95.63899040222168,396.6410160064697,1371,1
273,control,8.0,5,1,97.45216369628906,526.2768268585205,1440,1
274,control,9.0,5,1,98.52004051208496,530.4687023162842,997,1
275,control,10.0,5,1,99.65014457702637,813.1260871887207,971,1
276,control,11.0,5,0,1117.9347038269043,1117.9320812225342,817,1
277,control,12.0,11,1,494.1887855529785,494.1859245300293,1150,1
278,control,13.0,5,1,790.2610301971436,790.2579307556152,1206,1
279,control,14.0,5,1,593.9958095550537,593.9919948577881,1409,1
280,control,15.0,12,1,493.7291145324707,493.7260150909424,953,1
281,control,16.0,11,1,494.7400093078613,494.7361946105957,818,1
282,control,17.0,5,1,680.1407337188721,680.1388263702393,809,1
283,control,18.0,5,0,978.9860248565674,978.985071182251,1152,1
284,control,19.0,5,1,693.120002746582,693.1190490722656,1425,1
285,control,20.0,5,0,601.9890308380127,601.9809246063232,1161,1
286,control,21.0,17,1,496.28329277038574,496.2811470031738,1439,1
287,control,22.0,5,0,526.5407562255859,526.5359878540039,1377,1
288,control,23.0,11,1,714.3688201904297,714.3681049346924,1279,1
289,control,24.0,5,0,913.179874420166,913.1789207458496,1028,1
290,control,25.0,5,1,636.6899013519287,636.688232421875,1411,1
291,control,26.0,12,1,536.309003829956,536.3070964813232,939,1
292,control,27.0,12,1,592.4007892608643,592.3948287963867,1375,1
293,control,28.0,14,1,495.79310417175293,495.7921504974365,913,1
294,control,29.0,5,0,492.19489097595215,492.19393730163574,1321,1
295,control,30.0,14,1,602.4467945098877,602.4448871612549,1098,1
296,control,5.0,5,1,99.42293167114258,495.36800384521484,1068,1
297,control,6.0,5,1,492.7349090576172,492.72704124450684,1251,1
298,control,7.0,5,1,198.92597198486328,495.8970546722412,1387,1
299,control,8.0,5,1,99.11775588989258,598.8695621490479,1064,1
300,control,9.0,5,1,492.2370910644531,492.2313690185547,1185,1
301,control,10.0,5,1,484.29417610168457,484.29322242736816,967,1
302,control,11.0,8,1,486.65785789489746,486.65690422058105,1470,1
303,control,12.0,9,1,492.3880100250244,492.3849105834961,1068,1
304,control,13.0,5,0,791.5611267089844,791.5573120117188,861,1
305,control,14.0,5,0,736.7091178894043,736.7041110992432,1236,1
306,control,15.0,11,1,723.4189510345459,723.4129905700684,825,1
307,control,16.0,11,1,493.78299713134766,493.77894401550293,1356,1
308,control,17.0,5,1,701.1010646820068,701.0970115661621,1114,1
309,control,18.0,8,0,791.5687561035156,791.5668487548828,941,1
310,control,19.0,5,0,791.5821075439453,791.5811538696289,814,1
311,control,20.0,8,1,781.508207321167,781.5072536468506,1139,1
312,control,21.0,17,1,781.7530632019043,781.7530632019043,1360,1
313,control,22.0,8,1,627.2838115692139,627.2830963134766,1393,1
314,control,23.0,9,1,790.9371852874756,790.9293174743652,812,1
315,control,24.0,8,1,790.5991077423096,790.5881404876709,1397,1
316,control,25.0,5,1,988.8410568237305,988.8348579406738,944,1
317,control,26.0,12,1,595.6039428710938,595.6017971038818,1205,1
318,control,27.0,12,1,593.3170318603516,593.3120250701904,1121,0
319,control,27.0,12,1,593.0497646331787,593.0449962615967,882,1
320,control,28.0,12,1,603.5418510437012,603.5380363464355,1175,1
321,control,29.0,8,1,791.9189929962158,791.9139862060547,988,1
322,control,30.0,14,1,583.6491584777832,583.6482048034668,842,1
323,control,5.0,2,1,195.98388671875,1120.6297874450684,1080,1
324,control,6.0,2,1,199.37992095947266,724.9159812927246,1133,1
325,control,7.0,2,0,989.670991897583,989.6669387817383,1369,1
326,control,8.0,2,0,791.999101638794,791.9979095458984,937,1
327,control,9.0,2,0,396.03185653686523,396.0309028625488,1280,1
328,control,10.0,2,0,781.5580368041992,781.5570831298828,1205,1
329,control,11.0,8,1,595.3640937805176,595.3609943389893,1096,0
330,control,11.0,8,1,592.7660465240479,592.7610397338867,1133,1
331,control,12.0,9,1,593.4147834777832,593.4131145477295,1225,1
332,control,13.0,8,1,583.5409164428711,583.5399627685547,1373,1
333,control,14.0,8,1,593.6191082000732,593.6141014099121,1428,1
334,control,15.0,11,1,593.4970378875732,593.4951305389404,1276,1
335,control,16.0,9,1,603.154182434082,603.147029876709,1190,1
336,control,17.0,2,0,890.6958103179932,890.6919956207275,1163,1
337,control,18.0,11,1,516.0319805145264,516.0300731658936,1327,1
338,control,19.0,8,1,791.5687561035156,791.5656566619873,828,1
339,control,20.0,8,1,801.3529777526855,801.3389110565186,949,1
340,control,21.0,15,1,603.1138896942139,603.1060218811035,1420,1
341,control,22.0,8,1,625.4992485046387,625.4961490631104,1318,1
342,control,23.0,9,1,535.6049537658691,535.6009006500244,966,1
343,control,24.0,8,1,623.3010292053223,623.3000755310059,962,1
344,control,25.0,2,1,812.3791217803955,812.3781681060791,1463,1
345,control,26.0,11,0,801.0902404785156,801.0871410369873,1353,1
346,control,27.0,11,1,524.3799686431885,524.3771076202393,1166,1
347,control,28.0,12,1,427.88195610046387,427.88124084472656,1163,1
348,control,29.0,8,1,523.8862037658691,523.8840579986572,1145,1
349,control,30.0,12,1,713.5939598083496,713.5930061340332,843,1
350,control,5.0,2,1,130.22184371948242,924.2238998413086,889,1
351,control,6.0,2,1,792.2060489654541,792.2050952911377,1459,1
352,control,7.0,5,1,198.15301895141602,596.0347652435303,1054,1
353,control,8.0,5,1,604.2749881744385,604.2718887329102,1124,1
354,control,9.0,5,1,593.4638977050781,593.4579372406006,1092,1
355,control,10.0,5,1,593.4851169586182,593.480110168457,1288,1
356,control,11.0,6,1,584.1288566589355,584.1271877288818,1265,1
357,control,12.0,8,1,583.3091735839844,583.3079814910889,1432,1
358,control,13.0,8,1,595.146894454956,595.1428413391113,1036,1
359,control,14.0,8,1,594.0830707550049,594.0821170806885,1147,1
360,control,15.0,9,1,585.0977897644043,585.0968360900879,1266,1
361,control,16.0,9,0,792.4370765686035,792.4330234527588,836,1
362,control,17.0,5,0,802.4251461029053,802.422046661377,998,1
363,control,18.0,11,1,758.3470344543457,758.3401203155518,1317,1
364,control,19.0,8,1,790.5910015106201,790.5890941619873,1104,1
365,control,20.0,6,0,594.1751003265381,594.1729545593262,873,1
366,control,21.0,15,1,597.4047183990479,597.4009037017822,1174,1
367,control,22.0,6,0,791.5890216827393,791.5849685668945,990,1
368,control,23.0,8,0,920.9699630737305,920.968770980835,1471,1
369,control,24.0,6,1,790.9901142120361,790.9839153289795,1101,1
370,control,25.0,2,0,800.7979393005371,800.7938861846924,1030,1
371,control,26.0,12,1,790.297269821167,790.2910709381104,1458,1
372,control,27.0,11,1,791.2881374359131,791.28098487854,1040,1
373,control,28.0,11,1,602.9219627380371,602.9188632965088,1092,1
374,control,29.0,6,1,681.7007064819336,681.6997528076172,1334,1
375,control,30.0,12,1,792.6571369171143,792.651891708374,963,1
376,control,5.0,1,1,197.4020004272461,987.8790378570557,865,1
377,control,6.0,1,1,196.4259147644043,760.8230113983154,934,1
378,control,7.0,5,1,596.1899757385254,596.1837768554688,831,1
379,control,8.0,5,1,592.6551818847656,592.6499366760254,1388,1
380,control,9.0,5,1,583.5747718811035,583.5728645324707,1271,1
381,control,10.0,5,1,201.46989822387695,606.3799858093262,1057,1
382,control,11.0,6,1,603.9800643920898,603.978157043457,1465,1
383,control,12.0,8,1,593.0192470550537,593.0140018463135,1059,1
384,control,13.0,6,1,498.14820289611816,498.14510345458984,1447,1
385,control,14.0,6,1,590.3050899505615,590.2972221374512,1180,1
386,control,15.0,9,1,584.2809677124023,584.2790603637695,1327,1
387,control,16.0,11,1,603.3642292022705,603.3589839935303,923,1
388,control,17.0,8,1,791.9790744781494,791.9778823852539,1380,1
389,control,18.0,9,1,791.8000221252441,791.7981147766113,1227,1
390,control,19.0,6,1,824.1527080535889,824.1517543792725,957,1
391,control,20.0,8,1,1119.7710037231445,1119.7679042816162,887,1
392,control,21.0,14,1,527.6610851287842,527.6570320129395,800,1
393,control,22.0,8,1,616.6009902954102,616.6000366210938,1422,1
394,control,23.0,9,1,525.8560180664062,525.8529186248779,1227,1
395,control,24.0,6,1,791.9280529022217,791.9270992279053,1210,1
396,control,25.0,5,1,624.4380474090576,624.4349479675293,1450,1
397,control,26.0,12,1,822.4036693572998,822.3998546600342,821,1
398,control,27.0,9,1,747.9469776153564,747.9457855224609,885,1
399,control,28.0,11,0,402.8658866882324,402.8618335723877,806,1
400,control,29.0,6,0,921.4107990264893,921.40793800354,859,1
401,control,30.0,11,1,801.4380931854248,801.4330863952637,1186,1
1,quadbright,5.0,20,1,100.77071189880371,1120.7458972930908,1439,1
2,quadbright,6.0,20,1,99.2279052734375,593.6717987060547,803,1
3,quadbright,7.0,20,1,99.45821762084961,494.6413040161133,1278,1
4,quadbright,8.0,20,1,98.72698783874512,493.5600757598877,1209,1
5,quadbright,9.0,20,1,492.59495735168457,492.59281158447266,1011,1
6,quadbright,10.0,20,1,691.688060760498,691.6842460632324,997,1
7,quadbright,11.0,20,1,624.9098777770996,624.9089241027832,1390,1
8,quadbright,12.0,20,1,502.3319721221924,502.32720375061035,964,1
9,quadbright,13.0,20,1,594.1948890686035,594.1927433013916,1126,1
10,quadbright,14.0,20,1,494.0049648284912,494.0030574798584,1414,1
11,quadbright,15.0,20,1,495.4230785369873,495.4221248626709,1074,1
12,quadbright,16.0,20,1,594.1751003265381,594.1741466522217,1482,1
13,quadbright,17.0,20,1,495.6800937652588,495.67699432373047,1167,1
14,quadbright,18.0,20,1,714.7159576416016,714.7142887115479,1245,1
15,quadbright,19.0,20,1,691.643238067627,691.641092300415,1028,1
16,quadbright,20.0,20,1,494.5638179779053,494.56119537353516,1422,1
17,quadbright,21.0,20,1,890.3353214263916,890.3272151947021,986,1
18,quadbright,22.0,20,1,692.5849914550781,692.5830841064453,961,1
19,quadbright,23.0,20,1,594.4380760192871,594.4311618804932,969,1
20,quadbright,24.0,20,1,594.2950248718262,594.2847728729248,833,1
21,quadbright,25.0,20,1,693.0820941925049,693.0811405181885,1424,1
22,quadbright,26.0,20,1,635.469913482666,635.4660987854004,943,1
23,quadbright,27.0,20,1,693.2318210601807,693.228006362915,1075,1
24,quadbright,28.0,20,1,495.14007568359375,495.1348304748535,1029,1
25,quadbright,29.0,20,1,682.7421188354492,682.7399730682373,1487,1
26,quadbright,30.0,20,0,1451.606035232544,1451.6019821166992,1103,1
27,quadbright,5.0,20,1,102.7688980102539,585.7951641082764,1422,1
28,quadbright,6.0,20,1,100.54874420166016,493.4728145599365,1428,1
29,quadbright,7.0,20,1,99.16210174560547,484.2658042907715,1431,1
30,quadbright,8.0,20,1,99.29108619689941,495.09215354919434,1485,1
31,quadbright,9.0,20,1,395.68090438842773,395.676851272583,1302,1
32,quadbright,10.0,20,1,494.83227729797363,494.8313236236572,943,1
33,quadbright,11.0,20,1,495.1891899108887,495.18394470214844,1123,1
34,quadbright,12.0,20,1,616.0068511962891,616.0058975219727,1237,1
35,quadbright,13.0,20,1,494.54712867736816,494.54402923583984,1228,1
36,quadbright,14.0,20,1,497.546911239624,497.5438117980957,1022,1
37,quadbright,15.0,20,1,483.691930770874,483.6909770965576,1213,1
38,quadbright,16.0,20,1,492.556095123291,492.5551414489746,1003,1
39,quadbright,17.0,20,1,781.3868522644043,781.386137008667,966,1
40,quadbright,18.0,20,1,501.7120838165283,501.7070770263672,1358,1
41,quadbright,19.0,20,1,496.4320659637451,496.427059173584,1052,1
42,quadbright,20.0,20,1,526.113748550415,526.1080265045166,1165,1
43,quadbright,21.0,20,1,493.37291717529297,493.37077140808105,1460,1
44,quadbright,22.0,20,1,527.7988910675049,527.7941226959229,870,1
45,quadbright,23.0,20,1,495.30816078186035,495.30720710754395,1459,1
46,quadbright,24.0,20,1,456.4938545227051,456.4929008483887,1462,1
47,quadbright,25.0,20,1,495.03421783447266,495.03326416015625,1477,1
48,quadbright,26.0,20,1,692.9590702056885,692.957878112793,891,1
49,quadbright,27.0,20,1,515.4500007629395,515.4500007629395,852,1
50,quadbright,28.0,20,1,487.170934677124,487.1699810028076,1409,1
51,quadbright,29.0,20,1,483.89506340026855,483.89410972595215,948,1
52,quadbright,30.0,23,1,813.758134841919,813.755989074707,993,1
53,quadbright,5.0,17,1,98.93131256103516,427.4160861968994,1298,1
54,quadbright,6.0,17,1,98.76418113708496,395.24316787719727,1304,1
55,quadbright,7.0,17,1,493.3750629425049,493.37196350097656,1349,1
56,quadbright,8.0,17,1,492.8622245788574,492.8591251373291,1086,1
57,quadbright,9.0,17,1,98.7861156463623,395.6031799316406,1289,1
58,quadbright,10.0,17,1,502.98428535461426,502.98333168029785,904,1
59,quadbright,11.0,17,1,494.65107917785645,494.64988708496094,916,1
60,quadbright,12.0,17,1,395.56384086608887,395.56288719177246,1469,1
61,quadbright,13.0,17,1,493.13807487487793,493.1330680847168,1245,1
62,quadbright,14.0,17,1,493.7598705291748,493.7558174133301,986,1
63,quadbright,15.0,17,1,494.7230815887451,494.7218894958496,1299,1
64,quadbright,16.0,17,1,593.1181907653809,593.1110382080078,917,1
65,quadbright,17.0,17,1,495.3770637512207,495.3763484954834,1178,1
66,quadbright,18.0,17,1,592.0379161834717,592.0348167419434,956,0
67,quadbright,18.0,17,1,503.83687019348145,503.8299560546875,1500,1
68,quadbright,19.0,17,1,583.1589698791504,583.158016204834,1064,1
69,quadbright,20.0,17,1,537.7190113067627,537.7159118652344,1403,1
70,quadbright,21.0,17,1,493.9992427825928,493.99304389953613,875,1
71,quadbright,22.0,17,1,496.83570861816406,496.83499336242676,901,1
72,quadbright,23.0,17,1,493.070125579834,493.06607246398926,906,1
73,quadbright,24.0,17,1,595.055103302002,595.0460433959961,989,1
74,quadbright,25.0,17,1,494.8139190673828,494.8129653930664,884,1
75,quadbright,26.0,17,1,695.6729888916016,695.6710815429688,1028,1
76,quadbright,27.0,17,1,791.795015335083,791.7928695678711,1182,1
77,quadbright,28.0,17,1,990.584135055542,990.5829429626465,942,1
78,quadbright,29.0,17,1,692.1811103820801,692.176342010498,1496,1
79,quadbright,30.0,23,1,691.9510364532471,691.9510364532471,1221,1
80,quadbright,5.0,17,1,98.91700744628906,494.85206604003906,1302,1
81,quadbright,6.0,17,1,98.76799583435059,494.41003799438477,912,1
82,quadbright,7.0,17,1,98.79612922668457,493.6680793762207,881,1
83,quadbright,8.0,17,1,99.30109977722168,393.4619426727295,1305,1
84,quadbright,9.0,17,1,485.98694801330566,485.98623275756836,1107,1
85,quadbright,10.0,17,1,593.2238101959229,593.2199954986572,850,1
86,quadbright,11.0,17,1,98.14786911010742,494.3079948425293,1037,1
87,quadbright,12.0,17,1,625.5588531494141,625.5578994750977,1487,1
88,quadbright,13.0,17,1,625.417947769165,625.4148483276367,886,1
89,quadbright,14.0,17,1,495.2387809753418,495.236873626709,1369,1
90,quadbright,15.0,17,1,482.3431968688965,482.342004776001,1053,1
91,quadbright,16.0,17,1,493.35670471191406,493.35384368896484,869,1
92,quadbright,17.0,17,1,594.0101146697998,594.008207321167,1186,1
93,quadbright,18.0,17,1,494.78888511657715,494.78816986083984,1500,1
94,quadbright,19.0,17,1,482.81073570251465,482.81002044677734,1487,1
95,quadbright,20.0,17,1,583.3239555358887,583.3239555358887,1328,1
96,quadbright,21.0,17,1,493.8340187072754,493.83091926574707,1077,1
97,quadbright,22.0,17,1,592.2963619232178,592.2911167144775,807,1
98,quadbright,23.0,17,1,493.8082695007324,493.79825592041016,1234,1
99,quadbright,24.0,17,1,626.0192394256592,626.0170936584473,1198,1
100,quadbright,25.0,17,1,482.7268123626709,482.7258586883545,1327,1
101,quadbright,26.0,17,1,585.5879783630371,585.5870246887207,888,1
102,quadbright,27.0,17,0,1012.2489929199219,1012.2480392456055,1244,1
103,quadbright,28.0,17,1,582.0047855377197,582.0038318634033,1448,1
104,quadbright,29.0,17,0,790.7977104187012,790.7938957214355,1352,1
105,quadbright,30.0,20,1,593.3561325073242,593.3518409729004,987,1
106,quadbright,5.0,14,1,99.21598434448242,494.6558475494385,1250,1
107,quadbright,6.0,14,1,102.10490226745605,406.02684020996094,1221,1
108,quadbright,7.0,14,1,96.7099666595459,889.272928237915,863,1
109,quadbright,8.0,14,1,596.9831943511963,596.9810485839844,1223,1
110,quadbright,9.0,14,1,397.0510959625244,397.0451354980469,1154,1
111,quadbright,10.0,14,1,394.2399024963379,394.23298835754395,1183,1
112,quadbright,11.0,14,1,396.7161178588867,396.7099189758301,883,1
113,quadbright,12.0,14,1,492.56300926208496,492.56181716918945,1068,1
114,quadbright,13.0,14,1,394.64282989501953,394.6387767791748,1024,1
115,quadbright,14.0,14,1,592.3590660095215,592.3571586608887,1310,1
116,quadbright,15.0,14,1,593.7333106994629,593.7192440032959,963,1
117,quadbright,16.0,14,1,486.1769676208496,486.1760139465332,823,1
118,quadbright,17.0,14,1,483.4868907928467,483.4861755371094,932,1
119,quadbright,18.0,14,1,494.7991371154785,494.7950839996338,1151,1
120,quadbright,19.0,14,1,492.50102043151855,492.49792098999023,1294,1
121,quadbright,20.0,14,1,692.6658153533936,692.6589012145996,1295,1
122,quadbright,21.0,14,1,734.4651222229004,734.4582080841064,894,1
123,quadbright,22.0,14,1,504.81724739074707,504.8089027404785,1382,1
124,quadbright,23.0,14,1,592.0069217681885,592.0038223266602,1340,1
125,quadbright,24.0,14,1,493.39795112609863,493.3958053588867,1468,1
126,quadbright,25.0,14,1,693.5627460479736,693.5617923736572,1307,1
127,quadbright,26.0,14,1,1294.1160202026367,1294.1091060638428,943,0
128,quadbright,26.0,14,1,802.3648262023926,802.3548126220703,1191,1
129,quadbright,27.0,20,1,599.8079776763916,599.804162979126,1092,1
130,quadbright,28.0,14,1,494.77100372314453,494.7700500488281,988,1
131,quadbright,29.0,20,1,484.9252700805664,484.9240779876709,1100,1
132,quadbright,30.0,20,1,590.6689167022705,590.6639099121094,1473,1
133,quadbright,5.0,14,1,97.20301628112793,691.648006439209,1465,0
134,quadbright,5.0,14,1,428.0221462249756,428.0211925506592,1206,1
135,quadbright,6.0,14,1,594.398021697998,594.393253326416,1034,1
136,quadbright,7.0,14,1,98.69122505187988,493.2548999786377,835,1
137,quadbright,8.0,14,1,403.47957611083984,403.4769535064697,1457,1
138,quadbright,9.0,14,1,493.4978485107422,493.48998069763184,1334,1
139,quadbright,10.0,14,1,398.5781669616699,398.5762596130371,1219,1
140,quadbright,11.0,14,1,496.0207939147949,496.0150718688965,1173,1
141,quadbright,12.0,14,1,494.68088150024414,494.67992782592773,1111,1
142,quadbright,13.0,14,1,692.253828048706,692.2509670257568,1156,1
143,quadbright,14.0,14,1,495.15795707702637,495.15700340270996,1057,1
144,quadbright,15.0,14,1,483.40702056884766,483.40606689453125,1317,1
145,quadbright,16.0,14,1,493.8771724700928,493.87407302856445,1486,1
146,quadbright,17.0,14,1,797.3823547363281,797.3771095275879,1020,1
147,quadbright,18.0,14,1,500.8080005645752,500.8070468902588,1341,1
148,quadbright,19.0,14,1,582.5660228729248,582.5648307800293,848,1
149,quadbright,20.0,14,1,499.3860721588135,499.38392639160156,877,1
150,quadbright,21.0,14,1,592.9172039031982,592.9141044616699,888,1
151,quadbright,22.0,14,1,791.6350364685059,791.6319370269775,870,1
152,quadbright,23.0,14,1,690.4020309448242,690.3960704803467,1212,1
153,quadbright,24.0,14,1,493.178129196167,493.1750297546387,1024,1
154,quadbright,25.0,14,1,722.4440574645996,722.4409580230713,1036,1
155,quadbright,26.0,14,1,922.7898120880127,922.7867126464844,907,1
156,quadbright,27.0,20,1,625.6260871887207,625.6201267242432,1096,1
157,quadbright,28.0,14,1,593.6300754547119,593.6238765716553,1326,1
158,quadbright,29.0,20,1,600.4951000213623,600.4858016967773,1320,1
159,quadbright,30.0,17,1,1090.4738903045654,1090.4722213745117,1063,1
160,quadbright,5.0,11,1,99.36094284057617,504.7938823699951,877,1
161,quadbright,6.0,11,1,592.0231342315674,592.0178890228271,1144,1
162,quadbright,7.0,11,1,98.75130653381348,593.4481620788574,864,1
163,quadbright,8.0,11,1,98.67095947265625,592.5819873809814,1395,1
164,quadbright,9.0,11,1,593.5690402984619,593.5659408569336,1415,1
165,quadbright,10.0,11,1,494.97509002685547,494.97389793395996,1346,1
166,quadbright,11.0,11,1,594.0492153167725,594.048023223877,1399,1
167,quadbright,12.0,11,1,500.607967376709,500.60534477233887,1000,1
168,quadbright,13.0,11,1,717.9572582244873,717.9563045501709,961,1
169,quadbright,14.0,11,1,494.4148063659668,494.4138526916504,839,1
170,quadbright,15.0,11,1,496.4287281036377,496.42491340637207,1214,1
171,quadbright,16.0,11,1,825.523853302002,825.5221843719482,853,1
172,quadbright,17.0,11,1,1310.0039958953857,1310.0030422210693,1131,1
173,quadbright,18.0,11,1,493.99709701538086,493.9908981323242,1274,1
174,quadbright,19.0,11,1,494.6250915527344,494.62294578552246,1127,1
175,quadbright,20.0,11,0,890.8071517944336,890.8059597015381,989,0
176,quadbright,20.0,11,1,900.4428386688232,900.4409313201904,1165,1
177,quadbright,21.0,11,1,790.7850742340088,790.7767295837402,1443,1
178,quadbright,22.0,11,1,691.8678283691406,691.8647289276123,848,1
179,quadbright,23.0,11,0,796.363115310669,796.360969543457,1284,1
180,quadbright,24.0,11,1,593.5869216918945,593.5790538787842,1162,1
181,quadbright,25.0,11,1,691.8671131134033,691.864013671875,1227,1
182,quadbright,26.0,11,1,691.9190883636475,691.9112205505371,929,1
183,quadbright,27.0,18,1,1233.6161136627197,1233.6130142211914,836,1
184,quadbright,28.0,11,1,626.3320446014404,626.331090927124,1231,1
185,quadbright,29.0,18,1,600.9368896484375,600.9349822998047,1375,1
186,quadbright,30.0,17,1,595.2260494232178,595.2231884002686,885,1
187,quadbright,5.0,11,1,102.23102569580078,430.84096908569336,912,1
188,quadbright,6.0,11,1,100.36706924438477,395.7948684692383,827,1
189,quadbright,7.0,11,1,100.42214393615723,494.4720268249512,998,1
190,quadbright,8.0,11,1,494.3418502807617,494.3399429321289,1300,1
191,quadbright,9.0,11,1,97.95594215393066,395.19691467285156,949,1
192,quadbright,10.0,11,1,98.99687767028809,402.7440547943115,938,1
193,quadbright,11.0,11,1,492.39301681518555,492.3901557922363,1174,1
194,quadbright,12.0,11,1,395.71285247802734,395.7078456878662,959,1
195,quadbright,13.0,11,1,494.60911750793457,494.6002960205078,920,1
196,quadbright,14.0,11,1,395.5550193786621,395.5540657043457,963,1
197,quadbright,15.0,11,1,428.80892753601074,428.804874420166,1328,1
198,quadbright,16.0,11,1,495.0070381164551,495.00203132629395,1302,1
199,quadbright,17.0,11,0,791.2299633026123,791.2287712097168,815,1
200,quadbright,18.0,11,0,790.5640602111816,790.5619144439697,1371,1
201,quadbright,19.0,11,1,703.8919925689697,703.8898468017578,1358,1
202,quadbright,20.0,11,1,625.2191066741943,625.2171993255615,979,1
203,quadbright,21.0,11,0,791.3308143615723,791.3298606872559,1169,1
204,quadbright,22.0,11,0,691.7309761047363,691.7271614074707,883,1
205,quadbright,23.0,14,0,806.2078952789307,806.206226348877,1029,1
206,quadbright,24.0,11,0,1289.5479202270508,1289.5429134368896,935,1
207,quadbright,25.0,11,1,533.7300300598145,533.7269306182861,1325,1
208,quadbright,26.0,11,1,736.3412380218506,736.335039138794,847,1
209,quadbright,27.0,18,1,515.6238079071045,515.6228542327881,1366,1
210,quadbright,28.0,11,0,882.5221061706543,882.5211524963379,1049,1
211,quadbright,29.0,18,1,592.7131175994873,592.7078723907471,867,1
212,quadbright,30.0,14,1,780.7111740112305,780.709981918335,1035,1
213,quadbright,5.0,8,1,199.82504844665527,528.1670093536377,840,1
214,quadbright,6.0,8,1,99.16424751281738,415.6990051269531,886,1
215,quadbright,7.0,8,1,492.6619529724121,492.656946182251,1341,1
216,quadbright,8.0,8,1,99.05886650085449,494.9209690093994,1211,1
217,quadbright,9.0,8,1,99.95269775390625,526.8778800964355,1053,1
218,quadbright,10.0,8,1,526.3888835906982,526.3857841491699,1486,1
219,quadbright,11.0,8,1,98.95181655883789,435.22095680236816,1415,1
220,quadbright,12.0,8,1,97.11599349975586,492.36202239990234,860,1
221,quadbright,13.0,8,1,495.73612213134766,495.73612213134766,1144,1
222,quadbright,14.0,8,1,494.02308464050293,494.0202236175537,1330,1
223,quadbright,15.0,8,0,879.2009353637695,879.2009353637695,1461,1
224,quadbright,16.0,8,1,791.0928726196289,791.0900115966797,1350,1
225,quadbright,17.0,14,1,603.874921798706,603.8720607757568,977,1
226,quadbright,18.0,14,1,494.4767951965332,494.4758415222168,1356,1
227,quadbright,19.0,8,0,735.8119487762451,735.8078956604004,1469,1
228,quadbright,20.0,8,1,601.9527912139893,601.94993019104,1324,1
229,quadbright,21.0,14,1,493.96610260009766,493.959903717041,1295,1
230,quadbright,22.0,14,1,880.1248073577881,880.1226615905762,1051,1
231,quadbright,23.0,17,1,492.26999282836914,492.2678470611572,851,1
232,quadbright,24.0,14,1,593.0869579315186,593.0769443511963,931,1
233,quadbright,25.0,8,1,781.0800075531006,781.0790538787842,1356,1
234,quadbright,26.0,8,0,691.9040679931641,691.8940544128418,1054,1
235,quadbright,27.0,17,0,681.7259788513184,681.725025177002,1035,1
236,quadbright,28.0,14,1,483.25181007385254,483.25085639953613,970,1
237,quadbright,29.0,17,1,593.3520793914795,593.3430194854736,1327,1
238,quadbright,30.0,14,0,780.3099155426025,780.3099155426025,1239,1
239,quadbright,5.0,8,1,172.61791229248047,504.0140151977539,1387,1
240,quadbright,6.0,8,1,97.82290458679199,483.70885848999023,1500,1
241,quadbright,7.0,8,1,495.44811248779297,495.44596672058105,1027,1
242,quadbright,8.0,8,1,99.24817085266113,527.2581577301025,804,1
243,quadbright,9.0,8,1,97.29909896850586,482.9881191253662,973,1
244,quadbright,10.0,8,1,395.8761692047119,395.86925506591797,1086,1
245,quadbright,11.0,8,1,891.4382457733154,891.4370536804199,910,1
246,quadbright,12.0,8,1,499.7901916503906,499.7880458831787,1381,1
247,quadbright,13.0,8,1,507.232666015625,507.2300434112549,946,1
248,quadbright,14.0,8,1,604.705810546875,604.701042175293,1321,1
249,quadbright,15.0,11,1,498.73805046081543,498.7339973449707,1201,1
250,quadbright,16.0,8,0,593.9431190490723,593.9419269561768,1218,1
251,quadbright,17.0,14,1,591.4907455444336,591.4807319641113,1476,1
252,quadbright,18.0,14,1,495.29027938842773,495.2890872955322,1108,1
253,quadbright,19.0,11,1,494.0018653869629,493.99781227111816,1430,0
254,quadbright,19.0,11,0,1220.2351093292236,1220.231056213379,1122,1
255,quadbright,20.0,8,1,1012.3882293701172,1012.3872756958008,1444,1
256,quadbright,21.0,14,1,495.1610565185547,495.1589107513428,1305,1
257,quadbright,22.0,14,1,492.919921875,492.9161071777344,1188,1
258,quadbright,23.0,17,1,783.6380004882812,783.6358547210693,1092,1
259,quadbright,24.0,14,1,592.3032760620117,592.2942161560059,1011,1
260,quadbright,25.0,8,1,682.8038692474365,682.8029155731201,1145,1
261,quadbright,26.0,11,1,593.0221080780029,593.0171012878418,1160,1
262,quadbright,27.0,18,1,527.1899700164795,527.1878242492676,1230,1
263,quadbright,28.0,14,1,1219.5961475372314,1219.5909023284912,1459,1
264,quadbright,29.0,17,1,604.219913482666,604.2139530181885,1378,1
265,quadbright,30.0,17,1,494.5700168609619,494.5650100708008,801,1
266,quadbright,5.0,5,1,99.88808631896973,493.91984939575195,1428,1
267,quadbright,6.0,5,1,88.18507194519043,384.5481872558594,919,1
268,quadbright,7.0,5,1,97.91016578674316,690.9890174865723,1323,1
269,quadbright,8.0,5,1,230.15379905700684,528.5568237304688,1339,1
270,quadbright,9.0,5,1,101.47523880004883,1013.2601261138916,1356,1
271,quadbright,10.0,5,1,723.6089706420898,723.6061096191406,1053,1
272,quadbright,11.0,5,1,680.0410747528076,680.0403594970703,937,1
273,quadbright,12.0,5,0,198.14515113830566,692.1160221099854,1281,1
274,quadbright,13.0,5,0,713.5429382324219,713.5417461395264,1275,1
275,quadbright,14.0,5,1,694.011926651001,694.007158279419,919,1
276,quadbright,15.0,11,1,593.68896484375,593.68896484375,1269,1
277,quadbright,16.0,11,1,592.4563407897949,592.454195022583,1466,1
278,quadbright,17.0,12,0,801.9280433654785,801.9249439239502,1009,1
279,quadbright,18.0,12,1,501.10316276550293,501.0988712310791,1445,1
280,quadbright,19.0,14,1,393.6939239501953,393.6917781829834,1023,1
281,quadbright,20.0,5,1,791.0962104797363,791.0950183868408,1140,1
282,quadbright,21.0,12,1,613.7611865997314,613.7599945068359,950,1
283,quadbright,22.0,12,1,690.4330253601074,690.4268264770508,933,1
284,quadbright,23.0,15,1,592.7050113677979,592.7011966705322,1043,1
285,quadbright,24.0,12,1,487.5032901763916,487.5011444091797,1251,1
286,quadbright,25.0,5,0,691.4548873901367,691.4448738098145,1133,1
287,quadbright,26.0,11,0,691.7166709899902,691.7097568511963,1176,1
288,quadbright,27.0,18,1,1000.6577968597412,1000.6546974182129,870,1
289,quadbright,28.0,12,1,725.013017654419,725.0111103057861,1308,1
290,quadbright,29.0,15,1,823.4000205993652,823.3940601348877,1296,1
291,quadbright,30.0,17,0,1118.8421249389648,1118.8371181488037,921,1
292,quadbright,5.0,5,1,988.8277053833008,988.8229370117188,1002,1
293,quadbright,6.0,5,1,791.5210723876953,791.5151119232178,1144,1
294,quadbright,7.0,5,1,584.4409465789795,584.4399929046631,1308,1
295,quadbright,8.0,5,1,593.1210517883301,593.1181907653809,1333,1
296,quadbright,9.0,5,1,593.6441421508789,593.641996383667,1253,1
297,quadbright,10.0,5,1,198.12798500061035,595.7071781158447,1372,1
298,quadbright,11.0,5,0,593.9569473266602,593.9521789550781,1249,1
299,quadbright,12.0,8,1,592.2210216522217,592.2160148620605,1218,1
300,quadbright,13.0,8,0,790.9760475158691,790.9691333770752,975,1
301,quadbright,14.0,5,1,703.2656669616699,703.2618522644043,1490,1
302,quadbright,15.0,9,0,782.602071762085,782.6008796691895,1216,1
303,quadbright,16.0,11,1,791.6150093078613,791.6121482849121,1439,1
304,quadbright,17.0,14,1,593.1389331817627,593.1336879730225,1180,1
305,quadbright,18.0,12,1,791.9752597808838,791.9743061065674,1159,1
306,quadbright,19.0,14,1,593.2810306549072,593.2788848876953,1186,1
307,quadbright,20.0,5,1,782.8621864318848,782.8612327575684,930,1
308,quadbright,21.0,12,1,781.4271450042725,781.426191329956,857,1
309,quadbright,22.0,12,1,589.9562835693359,589.9550914764404,1420,1
310,quadbright,23.0,15,1,723.2580184936523,723.2561111450195,1269,1
311,quadbright,24.0,12,1,789.5040512084961,789.5019054412842,915,1
312,quadbright,25.0,8,1,781.7437648773193,781.7428112030029,1134,1
313,quadbright,26.0,12,1,592.5028324127197,592.4968719482422,1154,1
314,quadbright,27.0,17,1,603.4729480743408,603.4669876098633,981,1
315,quadbright,28.0,12,0,593.0430889129639,593.0371284484863,1299,1
316,quadbright,29.0,15,1,792.9551601409912,792.9439544677734,825,1
317,quadbright,30.0,18,1,593.440055847168,593.4321880340576,1273,1
318,quadbright,5.0,2,0,197.38411903381348,1186.615228652954,1139,1
319,quadbright,6.0,2,1,197.6337432861328,789.4747257232666,1175,1
320,quadbright,7.0,2,0,101.92298889160156,617.4600124359131,1265,1
321,quadbright,8.0,2,0,198.7152099609375,589.7881984710693,969,1
322,quadbright,9.0,2,0,781.3260555267334,781.3248634338379,1138,1
323,quadbright,10.0,2,1,998.661994934082,998.6541271209717,1015,1
324,quadbright,11.0,8,1,524.6078968048096,524.6000289916992,989,1
325,quadbright,12.0,8,1,393.9998149871826,393.9988613128662,1078,1
326,quadbright,13.0,11,1,593.7840938568115,593.7831401824951,1226,1
327,quadbright,14.0,2,0,789.6850109100342,789.6809577941895,1234,1
328,quadbright,15.0,11,1,793.8377857208252,793.8330173492432,1274,1
329,quadbright,16.0,9,0,682.7609539031982,682.7602386474609,1395,1
330,quadbright,17.0,14,1,506.0620307922363,506.0601234436035,1407,1
331,quadbright,18.0,11,1,921.4110374450684,921.4088916778564,1190,1
332,quadbright,19.0,12,1,781.7060947418213,781.7049026489258,1195,1
333,quadbright,20.0,2,1,782.8381061553955,782.8369140625,1099,1
334,quadbright,21.0,11,1,782.4990749359131,782.4978828430176,876,1
335,quadbright,22.0,11,1,802.1221160888672,802.1180629730225,1043,1
336,quadbright,23.0,14,0,791.1601066589355,791.1553382873535,1225,1
337,quadbright,24.0,11,1,603.0571460723877,603.053092956543,970,1
338,quadbright,25.0,8,0,792.266845703125,792.2639846801758,926,1
339,quadbright,26.0,12,1,794.2759990692139,794.2728996276855,1491,1
340,quadbright,27.0,17,1,594.5639610290527,594.5632457733154,869,1
341,quadbright,28.0,14,1,781.6901206970215,781.6891670227051,1281,1
342,quadbright,29.0,14,0,791.5689945220947,791.5689945220947,1225,1
343,quadbright,30.0,18,1,606.5301895141602,606.5280437469482,832,1
344,quadbright,5.0,5,1,198.29106330871582,602.2868156433105,1304,1
345,quadbright,6.0,2,1,1130.37109375,1130.3653717041016,1172,0
346,quadbright,6.0,2,1,101.07970237731934,726.8838882446289,920,1
347,quadbright,7.0,5,1,99.26819801330566,536.5979671478271,1010,1
348,quadbright,8.0,5,1,98.1760025024414,626.7378330230713,1161,1
349,quadbright,9.0,5,0,99.58481788635254,834.1920375823975,1284,1
350,quadbright,10.0,2,0,395.34878730773926,395.34592628479004,1119,1
351,quadbright,11.0,8,0,395.36285400390625,395.35999298095703,1207,1
352,quadbright,12.0,6,1,781.5601825714111,781.5589904785156,1355,1
353,quadbright,13.0,11,1,197.4329948425293,592.9782390594482,1364,0
354,quadbright,13.0,11,0,393.67008209228516,393.66793632507324,1331,1
355,quadbright,14.0,5,1,880.9242248535156,880.9211254119873,1351,1
356,quadbright,15.0,11,1,802.1221160888672,802.1152019500732,1027,1
357,quadbright,16.0,11,1,659.6379280090332,659.6369743347168,868,0
358,quadbright,16.0,11,1,585.4251384735107,585.4241847991943,931,1
359,quadbright,17.0,13,1,594.2649841308594,594.2597389221191,1157,1
360,quadbright,18.0,11,0,692.3167705535889,692.3158168792725,1042,1
361,quadbright,19.0,12,1,582.9989910125732,582.9977989196777,849,1
362,quadbright,20.0,2,0,733.5560321807861,733.5400581359863,1430,1
363,quadbright,21.0,11,1,782.85813331604,782.8559875488281,1029,1
364,quadbright,22.0,11,0,781.7168235778809,781.7158699035645,1410,1
365,quadbright,23.0,15,1,780.6284427642822,780.6272506713867,1193,1
366,quadbright,24.0,11,0,982.3510646820068,982.3501110076904,1193,1
367,quadbright,25.0,9,0,792.0482158660889,792.0470237731934,1347,1
368,quadbright,26.0,11,1,792.0119762420654,792.011022567749,1142,1
369,quadbright,27.0,16,1,428.16996574401855,428.16901206970215,1215,1
370,quadbright,28.0,14,0,824.0468502044678,824.0456581115723,1381,1
371,quadbright,29.0,15,1,781.5191745758057,781.5182209014893,1201,1
372,quadbright,30.0,17,1,692.7461624145508,692.7433013916016,1420,1
373,quadbright,5.0,5,1,197.0689296722412,591.7527675628662,873,1
374,quadbright,6.0,1,1,104.12025451660156,634.0391635894775,1085,1
375,quadbright,7.0,5,1,198.12798500061035,802.509069442749,1295,1
376,quadbright,8.0,5,1,713.8288021087646,713.8278484344482,1420,1
377,quadbright,9.0,8,1,594.4998264312744,594.494104385376,804,1
378,quadbright,10.0,5,0,594.5768356323242,594.5711135864258,1496,1
379,quadbright,11.0,9,1,814.2809867858887,814.2788410186768,1452,1
380,quadbright,12.0,6,1,655.677318572998,655.6711196899414,1252,1
381,quadbright,13.0,12,1,626.8420219421387,626.8410682678223,1324,1
382,quadbright,14.0,5,1,922.4958419799805,922.4939346313477,945,1
383,quadbright,15.0,10,1,713.7861251831055,713.7851715087891,888,1
384,quadbright,16.0,11,1,524.5208740234375,524.5187282562256,1264,1
385,quadbright,17.0,13,1,626.629114151001,626.6281604766846,1398,1
386,quadbright,18.0,12,0,920.6042289733887,920.5999374389648,889,1
387,quadbright,19.0,11,1,790.3249263763428,790.3227806091309,1136,1
388,quadbright,20.0,5,0,793.1418418884277,793.1380271911621,800,1
389,quadbright,21.0,9,1,793.7898635864258,793.7860488891602,933,1
390,quadbright,22.0,12,0,781.2869548797607,781.2857627868652,1382,1
391,quadbright,23.0,15,1,593.3561325073242,593.3520793914795,1225,1
392,quadbright,24.0,12,1,790.8890247344971,790.8840179443359,991,1
393,quadbright,25.0,11,0,792.8991317749023,792.8969860076904,1003,1
394,quadbright,26.0,11,1,691.9040679931641,691.8971538543701,928,1
