trial,condition,eccentricity,magnitude,correct,srt_ms,keyboard_rt_ms,pre_change_ms,valid
1,control,5.0,20,1,494.10510063171387,494.10295486450195,1255,0
2,control,5.0,20,1,100.0208854675293,725.3177165985107,1319,1
3,control,6.0,20,1,131.52289390563965,623.8811016082764,847,1
4,control,7.0,20,1,99.5340347290039,428.6022186279297,861,1
5,control,8.0,20,1,625.1692771911621,625.1640319824219,1038,1
6,control,9.0,20,1,789.8788452148438,789.8728847503662,1184,1
7,control,10.0,20,1,493.13902854919434,493.1330680847168,1406,1
8,control,11.0,20,1,592.3140048980713,592.3118591308594,1155,1
9,control,12.0,20,1,591.4101600646973,591.4080142974854,825,1
10,control,13.0,20,1,493.3950901031494,493.3929443359375,1172,1
11,control,14.0,20,1,686.9151592254639,686.9142055511475,842,1
12,control,15.0,20,1,497.1330165863037,497.1299171447754,1237,1
13,control,16.0,20,1,493.96395683288574,493.9608573913574,1036,1
14,control,17.0,20,1,496.59085273742676,496.58989906311035,1140,1
15,control,18.0,20,1,592.8490161895752,592.8411483764648,1339,1
16,control,19.0,20,1,495.15485763549805,495.15485763549805,811,1
17,control,20.0,20,1,493.30830574035645,493.2982921600342,823,1
18,control,21.0,20,1,591.3069248199463,591.2928581237793,1398,1
19,control,22.0,20,1,601.7119884490967,601.708173751831,1113,1
20,control,23.0,20,1,505.74707984924316,505.74326515197754,904,1
21,control,24.0,20,1,724.9248027801514,724.9209880828857,1065,1
22,control,25.0,20,1,603.8808822631836,603.8782596588135,1206,1
23,control,26.0,20,1,591.3708209991455,591.3689136505127,1452,1
24,control,27.0,20,1,1198.6339092254639,1198.6300945281982,1113,1
25,control,28.0,20,1,692.0261383056641,692.0211315155029,1000,1
26,control,29.0,20,1,494.9970245361328,494.9939250946045,1377,1
27,control,30.0,20,1,724.4229316711426,724.4207859039307,1191,1
28,control,5.0,20,1,623.244047164917,623.2352256774902,895,1
29,control,6.0,20,1,197.96204566955566,703.6752700805664,1110,1
30,control,7.0,20,1,797.914981842041,797.9111671447754,868,1
31,control,8.0,20,1,493.3030605316162,493.297815322876,1497,1
32,control,9.0,20,0,1020.4160213470459,1020.409107208252,1064,1
33,control,10.0,20,1,98.66476058959961,593.116044998169,982,1
34,control,11.0,20,1,494.8720932006836,494.8689937591553,1471,0
35,control,11.0,20,1,704.5958042144775,704.5860290527344,825,1
36,control,12.0,20,1,593.6319828033447,593.6291217803955,1012,1
37,control,13.0,20,1,592.940092086792,592.9369926452637,990,1
38,control,14.0,20,1,823.634147644043,823.6289024353027,1230,1
39,control,15.0,20,1,690.8848285675049,690.8838748931885,1150,1
40,control,16.0,20,1,693.1667327880859,693.1626796722412,960,1
41,control,17.0,20,1,692.8691864013672,692.8660869598389,1319,1
42,control,18.0,20,1,713.7131690979004,713.7119770050049,838,1
43,control,19.0,20,1,727.6270389556885,727.6220321655273,996,1
44,control,20.0,20,1,691.9763088226318,691.9732093811035,1419,1
45,control,21.0,20,1,794.4600582122803,794.4550514221191,868,1
46,control,22.0,20,1,691.6310787200928,691.6260719299316,1063,1
47,control,23.0,20,1,679.6140670776367,679.6131134033203,1471,1
48,control,24.0,20,1,594.6328639984131,594.6309566497803,1304,1
49,control,25.0,20,1,626.4557838439941,626.4550685882568,1215,1
50,control,26.0,20,1,791.0101413726807,791.0060882568359,827,1
51,control,27.0,20,1,625.0238418579102,625.0197887420654,1046,1
52,control,28.0,20,1,781.0549736022949,781.0540199279785,1021,1
53,control,29.0,20,1,692.6720142364502,692.6689147949219,874,1
54,control,30.0,20,1,601.269006729126,601.2651920318604,940,1
55,control,5.0,17,1,98.93608093261719,593.5580730438232,876,1
56,control,6.0,17,1,98.93083572387695,785.423994064331,966,1
57,control,7.0,17,1,98.99306297302246,592.0579433441162,1279,1
58,control,8.0,17,1,505.0060749053955,504.99987602233887,1334,1
59,control,9.0,23,1,735.2280616760254,735.2230548858643,1014,1
60,control,10.0,17,1,692.4922466278076,692.4910545349121,810,1
61,control,11.0,17,1,526.6778469085693,526.6768932342529,1342,1
62,control,12.0,17,1,794.1498756408691,794.1441535949707,1429,1
63,control,13.0,17,1,800.908088684082,800.9040355682373,1038,1
64,control,14.0,17,1,417.1459674835205,417.1440601348877,1305,1
65,control,15.0,17,1,616.9698238372803,616.9679164886475,1367,1
66,control,16.0,17,1,736.3660335540771,736.3600730895996,960,1
67,control,17.0,17,1,692.3809051513672,692.3739910125732,1338,1
68,control,18.0,17,1,702.7442455291748,702.7382850646973,839,1
69,control,19.0,17,1,726.4947891235352,726.4938354492188,1128,1
70,control,20.0,17,1,593.8222408294678,593.8212871551514,1280,1
71,control,21.0,17,0,1090.2371406555176,1090.2330875396729,892,1
72,control,22.0,17,1,593.9188003540039,593.9009189605713,1394,1
73,control,23.0,17,1,625.9911060333252,625.9901523590088,978,1
74,control,24.0,17,1,703.0479907989502,703.0432224273682,1010,1
75,control,25.0,17,1,581.6280841827393,581.6268920898438,932,1
76,control,26.0,17,1,489.8340702056885,489.83311653137207,1100,1
77,control,27.0,17,1,494.0500259399414,494.0469264984131,1270,1
78,control,28.0,17,1,593.8832759857178,593.8823223114014,1303,1
79,control,29.0,17,1,583.8320255279541,583.8310718536377,811,1
80,control,30.0,17,0,880.7988166809082,880.7978630065918,1232,1
81,control,5.0,17,1,100.31890869140625,494.0142631530762,1400,1
82,control,6.0,17,1,99.58505630493164,714.8120403289795,1490,1
83,control,7.0,17,1,98.99687767028809,636.646032333374,1038,1
84,control,8.0,17,1,483.14404487609863,483.1428527832031,923,1
85,control,9.0,23,1,714.5869731903076,714.5857810974121,1333,1
86,control,10.0,17,1,878.4229755401611,878.4220218658447,888,1
87,control,11.0,17,1,593.8272476196289,593.8260555267334,1030,1
88,control,12.0,17,1,630.6421756744385,630.6343078613281,846,1
89,control,13.0,17,1,402.6789665222168,402.6751518249512,1321,1
90,control,14.0,17,1,728.5099029541016,728.5058498382568,1174,1
91,control,15.0,17,1,538.4819507598877,538.477897644043,1219,1
92,control,16.0,17,1,692.1720504760742,692.1701431274414,1108,1
93,control,17.0,17,1,506.2539577484131,506.2518119812012,920,1
94,control,18.0,17,1,494.60577964782715,494.6019649505615,946,1
95,control,19.0,17,1,632.943868637085,632.9400539398193,887,1
96,control,20.0,17,1,494.7772026062012,494.77624893188477,1212,1
97,control,21.0,20,1,586.9271755218506,586.9240760803223,1024,1
98,control,22.0,17,1,581.4700126647949,581.4692974090576,819,1
99,control,23.0,17,1,492.3980236053467,492.39397048950195,1382,1
100,control,24.0,17,1,599.3590354919434,599.3568897247314,1057,1
101,control,25.0,17,1,598.1011390686035,598.0930328369141,904,1
102,control,26.0,17,1,502.89297103881836,502.8829574584961,1418,1
103,control,27.0,17,1,581.8741321563721,581.8719863891602,970,1
104,control,28.0,17,1,586.9262218475342,586.9240760803223,848,1
105,control,29.0,17,1,584.6781730651855,584.6760272979736,865,1
106,control,30.0,20,1,592.0660495758057,592.0579433441162,1065,1
107,control,5.0,14,1,98.40631484985352,521.6860771179199,1457,1
108,control,6.0,14,1,96.38619422912598,481.93907737731934,1481,1
109,control,7.0,14,1,131.90817832946777,626.4410018920898,991,1
110,control,8.0,14,1,99.0593433380127,583.9791297912598,1014,1
111,control,9.0,21,1,504.65917587280273,504.655122756958,1180,1
112,control,10.0,14,1,594.5758819580078,594.5742130279541,1374,1
113,control,11.0,14,1,492.2192096710205,492.2182559967041,1432,1
114,control,12.0,14,1,792.0901775360107,792.0880317687988,928,1
115,control,13.0,14,1,595.3679084777832,595.3667163848877,1241,1
116,control,14.0,14,1,603.8699150085449,603.8618087768555,1401,1
117,control,15.0,14,1,499.42994117736816,499.42803382873535,1414,1
118,control,16.0,14,1,538.081169128418,538.0749702453613,1066,1
119,control,17.0,14,1,534.7018241882324,534.6980094909668,888,1
120,control,18.0,14,1,530.5349826812744,530.5302143096924,1151,1
121,control,19.0,14,1,505.3732395172119,505.3689479827881,1406,1
122,control,20.0,14,1,527.0209312438965,527.0159244537354,822,1
123,control,21.0,20,1,483.8440418243408,483.8430881500244,896,1
124,control,22.0,14,1,593.7380790710449,593.7371253967285,860,1
125,control,23.0,14,1,494.88210678100586,494.88115310668945,1094,1
126,control,24.0,14,1,484.4198226928711,484.4186305999756,1049,1
127,control,25.0,14,1,493.1020736694336,493.09420585632324,921,1
128,control,26.0,14,1,586.5678787231445,586.5669250488281,1047,1
129,control,27.0,14,1,602.651834487915,602.6430130004883,841,1
130,control,28.0,14,1,583.3048820495605,583.3048820495605,1011,1
131,control,29.0,14,1,605.0729751586914,605.0689220428467,892,1
132,control,30.0,20,1,583.2791328430176,583.2779407501221,1121,1
133,control,5.0,14,1,99.01690483093262,504.3339729309082,1030,1
134,control,6.0,14,1,96.52209281921387,978.6748886108398,1458,1
135,control,7.0,14,1,97.27096557617188,589.5028114318848,983,1
136,control,8.0,14,1,101.70507431030273,595.4070091247559,1116,1
137,control,9.0,21,1,495.59712409973145,495.59712409973145,875,1
138,control,10.0,14,1,592.5610065460205,592.5538539886475,822,1
139,control,11.0,14,1,494.77696418762207,494.77624893188477,1063,1
140,control,12.0,14,1,495.01991271972656,495.01895904541016,805,1
141,control,13.0,14,1,699.4576454162598,699.4528770446777,1450,1
142,control,14.0,14,1,495.0559139251709,495.0549602508545,962,1
143,control,15.0,14,1,484.4982624053955,484.4973087310791,1257,1
144,control,16.0,14,1,406.95714950561523,406.9540500640869,1292,1
145,control,17.0,14,1,560.8141422271729,560.8129501342773,868,1
146,control,18.0,14,1,494.0159320831299,494.00806427001953,1473,1
147,control,19.0,14,1,505.01203536987305,505.0089359283447,1078,1
148,control,20.0,14,1,505.1841735839844,505.17916679382324,1262,1
149,control,21.0,18,1,495.01800537109375,495.01705169677734,1018,1
150,control,22.0,14,1,494.614839553833,494.6138858795166,1268,1
151,control,23.0,14,1,587.5139236450195,587.512731552124,1188,1
152,control,24.0,14,1,593.7149524688721,593.7149524688721,822,1
153,control,25.0,14,1,680.2809238433838,680.2799701690674,1015,1
154,control,26.0,14,1,592.3759937286377,592.3712253570557,1065,1
155,control,27.0,14,1,735.2712154388428,735.2612018585205,1277,1
156,control,28.0,14,1,695.9748268127441,695.9729194641113,1469,1
157,control,29.0,14,1,592.9780006408691,592.9741859436035,1030,1
158,control,30.0,18,1,604.8781871795654,604.8691272735596,1191,1
159,control,5.0,11,1,99.3802547454834,592.8339958190918,1316,1
160,control,6.0,11,1,98.7548828125,494.3690299987793,815,1
161,control,7.0,11,1,98.44613075256348,784.2659950256348,1042,1
162,control,8.0,11,1,100.1889705657959,504.925012588501,1241,1
163,control,9.0,20,1,593.9671993255615,593.966007232666,1208,1
164,control,10.0,11,1,99.73883628845215,493.90673637390137,1063,1
165,control,11.0,11,1,494.66991424560547,494.66872215270996,1002,1
166,control,12.0,11,1,494.3881034851074,494.3859577178955,888,1
167,control,13.0,11,1,505.24425506591797,505.23900985717773,1338,1
168,control,14.0,11,1,537.9951000213623,537.9929542541504,1486,1
169,control,15.0,11,1,505.66768646240234,505.6619644165039,1495,1
170,control,16.0,11,1,395.6339359283447,395.6327438354492,1324,1
171,control,17.0,11,1,605.6079864501953,605.6020259857178,1258,1
172,control,18.0,11,1,502.8119087219238,502.8097629547119,1289,1
173,control,19.0,11,1,591.6070938110352,591.6061401367188,1004,1
174,control,20.0,11,1,486.01293563842773,486.0119819641113,890,1
175,control,21.0,18,1,693.4547424316406,693.4537887573242,867,1
176,control,22.0,11,1,604.4080257415771,604.3949127197266,1070,1
177,control,23.0,11,1,483.7512969970703,483.7501049041748,851,0
178,control,23.0,11,1,497.00188636779785,496.99974060058594,1094,1
179,control,24.0,11,1,602.0779609680176,602.0739078521729,991,1
180,control,25.0,11,1,483.1271171569824,483.1259250640869,1150,1
181,control,26.0,11,1,592.6189422607422,592.6151275634766,1205,1
182,control,27.0,11,1,603.1632423400879,603.1570434570312,1424,1
183,control,28.0,11,1,495.21493911743164,495.21398544311523,1420,1
184,control,29.0,11,1,586.8210792541504,586.820125579834,820,1
185,control,30.0,18,1,494.826078414917,494.8229789733887,831,1
186,control,5.0,11,0,98.25611114501953,593.4803485870361,830,1
187,control,6.0,11,1,98.4199047088623,491.39904975891113,1124,0
188,control,6.0,11,1,99.4269847869873,681.6470623016357,867,1
189,control,7.0,11,1,99.29800033569336,704.3623924255371,1106,1
190,control,8.0,11,1,394.3970203399658,394.38700675964355,919,1
191,control,9.0,20,1,98.92082214355469,396.18587493896484,931,1
192,control,10.0,11,1,385.76292991638184,385.76197624206543,1420,1
193,control,11.0,11,1,495.50676345825195,495.50580978393555,1232,1
194,control,12.0,11,1,395.6561088562012,395.65491676330566,1212,1
195,control,13.0,11,1,491.99485778808594,491.987943649292,1157,1
196,control,14.0,11,1,504.1780471801758,504.17590141296387,1154,1
197,control,15.0,11,1,583.9769840240479,583.9762687683105,1435,1
198,control,16.0,11,1,505.58996200561523,505.5830478668213,1125,1
199,control,17.0,11,1,494.7810173034668,494.7798252105713,1372,1
200,control,18.0,11,1,592.7140712738037,592.7109718322754,1402,1
201,control,19.0,11,1,495.14174461364746,495.14102935791016,1003,1
202,control,20.0,11,1,492.351770401001,492.34890937805176,1265,1
203,control,21.0,17,1,494.30084228515625,494.29988861083984,872,1
204,control,22.0,11,1,583.716869354248,583.716869354248,913,1
205,control,23.0,11,1,485.29624938964844,485.2941036224365,1180,1
206,control,24.0,11,1,483.37411880493164,483.37292671203613,1046,1
207,control,25.0,11,1,496.67882919311523,496.6750144958496,988,1
208,control,26.0,11,1,602.6597023010254,602.6570796966553,842,1
209,control,27.0,11,1,724.4052886962891,724.4040966033936,1407,1
210,control,28.0,11,1,792.4039363861084,792.39821434021,1105,1
211,control,29.0,11,1,582.4997425079346,582.4987888336182,927,1
212,control,30.0,17,1,582.9179286956787,582.9167366027832,1438,1
213,control,5.0,14,1,98.24585914611816,493.4539794921875,984,1
214,control,6.0,8,1,97.8860855102539,493.8349723815918,1450,1
215,control,7.0,8,1,99.17998313903809,389.725923538208,1203,1
216,control,8.0,8,1,99.1506576538086,702.7719020843506,1242,1
217,control,9.0,18,1,395.6301212310791,395.6291675567627,1167,1
218,control,10.0,8,1,494.45104598999023,494.4498538970947,1372,1
219,control,11.0,8,1,912.0419025421143,912.0409488677979,817,1
220,control,12.0,8,1,483.5479259490967,483.5469722747803,1248,1
221,control,13.0,8,1,589.8292064666748,589.8251533508301,897,1
222,control,14.0,8,1,492.9778575897217,492.966890335083,812,1
223,control,15.0,8,1,592.4391746520996,592.4370288848877,1061,1
224,control,16.0,8,1,590.3151035308838,590.3129577636719,1400,1
225,control,17.0,8,1,822.965145111084,822.9608535766602,1096,1
226,control,18.0,8,1,901.5531539916992,901.5452861785889,1140,1
227,control,19.0,8,1,493.6652183532715,493.66235733032227,1153,1
228,control,20.0,8,1,803.2879829406738,803.2851219177246,1018,1
229,control,21.0,17,1,517.43483543396,517.4341201782227,1432,1
230,control,22.0,8,1,416.5608882904053,416.55993461608887,1117,1
231,control,23.0,8,1,528.5959243774414,528.594970703125,1154,1
232,control,24.0,8,1,912.3749732971191,912.3740196228027,1354,1
233,control,25.0,8,1,504.7729015350342,504.76908683776855,1363,1
234,control,26.0,8,1,594.764232635498,594.7620868682861,1342,1
235,control,27.0,8,1,592.6122665405273,592.6079750061035,1416,1
236,control,28.0,8,1,492.54918098449707,492.54393577575684,1279,1
237,control,29.0,8,1,592.0979976654053,592.0958518981934,1312,1
238,control,30.0,17,1,592.6389694213867,592.6370620727539,1187,1
239,control,5.0,14,1,98.81973266601562,591.6659832000732,1271,1
240,control,6.0,8,1,103.05190086364746,502.8212070465088,1216,1
241,control,7.0,8,1,100.29268264770508,499.3469715118408,1007,1
242,control,8.0,8,1,197.21508026123047,484.0390682220459,1034,1
243,control,9.0,18,1,197.22986221313477,493.84498596191406,954,1
244,control,10.0,8,1,98.77395629882812,388.6237144470215,910,1
245,control,11.0,8,1,100.71921348571777,517.0481204986572,1035,1
246,control,12.0,8,1,396.44694328308105,396.4409828186035,1087,1
247,control,13.0,8,1,713.8428688049316,713.8419151306152,1262,1
248,control,14.0,8,0,933.7339401245117,933.7279796600342,1160,1
249,control,15.0,8,1,595.2439308166504,595.233678817749,1311,1
250,control,16.0,8,1,593.5430526733398,593.5420989990234,1459,1
251,control,17.0,8,1,889.9757862091064,889.9729251861572,1475,1
252,control,18.0,8,1,501.9710063934326,501.9669532775879,1292,1
253,control,19.0,8,0,802.3171424865723,802.3102283477783,1048,1
254,control,20.0,8,1,702.6717662811279,702.6700973510742,1315,1
255,control,21.0,15,1,702.65793800354,702.6569843292236,943,1
256,control,22.0,8,1,989.0651702880859,989.0611171722412,802,1
257,control,23.0,8,1,690.100908279419,690.0959014892578,1323,1
258,control,24.0,8,1,695.141077041626,695.1322555541992,1224,1
259,control,25.0,8,1,492.74396896362305,492.7380084991455,1355,1
260,control,26.0,8,1,593.6541557312012,593.6520099639893,1330,1
261,control,27.0,8,0,704.5941352844238,704.5869827270508,1100,1
262,control,28.0,8,0,879.94384765625,879.9431324005127,1037,1
263,control,29.0,8,1,694.2710876464844,694.2698955535889,1436,1
264,control,30.0,15,1,528.1558036804199,528.1510353088379,1422,1
265,control,5.0,12,1,99.3032455444336,525.8941650390625,1005,1
266,control,6.0,5,1,96.6639518737793,427.02317237854004,1406,1
267,control,7.0,5,1,99.18069839477539,428.23195457458496,1343,1
268,control,8.0,5,1,99.13396835327148,524.2729187011719,966,1
269,control,9.0,17,1,98.6781120300293,394.58417892456055,902,1
270,control,10.0,5,1,191.71810150146484,483.9599132537842,935,1
271,control,11.0,5,1,597.3238945007324,597.322940826416,1067,1
272,control,12.0,5,0,988.7189865112305,988.7111186981201,1395,1
273,control,13.0,5,1,494.2028522491455,494.19689178466797,1238,1
274,control,14.0,11,1,493.7877655029297,493.77989768981934,982,1
275,control,15.0,5,1,789.1020774841309,789.099931716919,1223,1
276,control,16.0,5,1,681.1797618865967,681.1790466308594,1174,1
277,control,17.0,5,1,695.6019401550293,695.6000328063965,913,1
278,control,18.0,5,0,796.7538833618164,796.7529296875,996,1
279,control,19.0,11,1,493.1497573852539,493.14403533935547,1127,0
280,control,19.0,11,1,392.6270008087158,392.6229476928711,958,1
281,control,20.0,5,1,692.4500465393066,692.4469470977783,925,1
282,control,21.0,15,1,495.3129291534424,495.31078338623047,844,1
283,control,22.0,5,1,693.0420398712158,693.0398941040039,1423,1
284,control,23.0,5,0,1021.4440822601318,1021.4362144470215,955,1
285,control,24.0,5,0,1087.6727104187012,1087.6710414886475,1023,1
286,control,25.0,5,0,786.9071960449219,786.8971824645996,908,1
287,control,26.0,5,0,591.8700695037842,591.8679237365723,1150,1
288,control,27.0,11,1,528.184175491333,528.1832218170166,1399,1
289,control,28.0,11,1,500.3018379211426,500.29492378234863,1445,1
290,control,29.0,5,1,624.2039203643799,624.1989135742188,1043,1
291,control,30.0,15,1,494.89402770996094,494.89307403564453,1394,1
292,control,5.0,12,1,98.8149642944336,493.3440685272217,1229,1
293,control,6.0,5,1,99.79486465454102,492.4929141998291,1450,1
294,control,7.0,5,1,536.2157821655273,536.2148284912109,1224,1
295,control,8.0,5,1,493.8530921936035,493.847131729126,1119,1
296,control,9.0,17,1,801.764965057373,801.7611503601074,1199,1
297,control,10.0,5,1,681.6649436950684,681.663990020752,1202,1
298,control,11.0,5,1,703.5098075866699,703.5017013549805,857,1
299,control,12.0,8,1,594.2709445953369,594.2649841308594,1300,1
300,control,13.0,5,1,594.6760177612305,594.6750640869141,1106,1
301,control,14.0,11,1,495.0990676879883,495.09692192077637,1104,1
302,control,15.0,5,1,689.3668174743652,689.3661022186279,1185,1
303,control,16.0,5,1,602.6928424835205,602.6859283447266,895,1
304,control,17.0,5,1,694.4918632507324,694.4878101348877,1480,1
305,control,18.0,8,1,592.9112434387207,592.9069519042969,1309,1
306,control,19.0,11,1,527.4748802185059,527.4720191955566,800,1
307,control,20.0,5,1,826.1880874633789,826.1861801147461,827,1
308,control,21.0,14,1,622.4560737609863,622.4541664123535,1321,1
309,control,22.0,5,1,834.2158794403076,834.2139720916748,943,1
310,control,23.0,8,0,725.3298759460449,725.327730178833,1331,0
311,control,23.0,8,1,888.8089656829834,888.8039588928223,970,1
312,control,24.0,8,1,988.4207248687744,988.4178638458252,916,1
313,control,25.0,8,1,580.9471607208252,580.9462070465088,1042,1
314,control,26.0,8,0,800.5061149597168,800.504207611084,1168,1
315,control,27.0,11,0,713.0222320556641,713.0222320556641,1346,1
316,control,28.0,11,0,1310.528039932251,1310.5273246765137,1354,1
317,control,29.0,5,0,692.2969818115234,692.2948360443115,1240,1
318,control,30.0,14,1,594.7549343109131,594.7530269622803,1020,1
319,control,5.0,11,1,99.9002456665039,493.15905570983887,1275,1
320,control,6.0,2,0,99.12300109863281,781.0750007629395,1302,1
321,control,7.0,2,1,99.29776191711426,1199.0060806274414,934,1
322,control,8.0,2,1,497.7409839630127,497.7390766143799,1230,1
323,control,9.0,15,1,493.2138919830322,493.2107925415039,1411,1
324,control,10.0,2,1,987.6160621643066,987.6108169555664,1094,1
325,control,11.0,2,0,896.7537879943848,896.7506885528564,1441,1
326,control,12.0,8,1,416.51296615600586,416.51201248168945,1274,1
327,control,13.0,2,1,734.8220348358154,734.8170280456543,1118,1
328,control,14.0,9,1,498.46696853637695,498.46601486206055,1312,1
329,control,15.0,2,1,722.376823425293,722.3689556121826,1063,1
330,control,16.0,2,1,622.6160526275635,622.6100921630859,1467,1
331,control,17.0,2,1,634.6390247344971,634.6371173858643,996,1
332,control,18.0,8,1,803.4579753875732,803.4539222717285,1104,1
333,control,19.0,9,1,494.87996101379395,494.87900733947754,1179,1
334,control,20.0,2,1,600.6710529327393,600.6667613983154,859,1
335,control,21.0,14,1,506.9398880004883,506.929874420166,964,1
336,control,22.0,2,0,781.5139293670654,781.512975692749,1006,1
337,control,23.0,8,1,593.2271480560303,593.2211875915527,914,1
338,control,24.0,8,1,496.356725692749,496.3488578796387,1452,1
339,control,25.0,8,0,887.5892162322998,887.5870704650879,1432,1
340,control,26.0,11,1,704.4951915740967,704.4880390167236,859,1
341,control,27.0,12,1,485.0039482116699,485.0029945373535,1007,1
342,control,28.0,12,1,591.1898612976074,591.1848545074463,1261,1
343,control,29.0,8,0,902.8270244598389,902.8198719024658,846,1
344,control,30.0,14,1,506.29591941833496,506.2880516052246,1481,1
345,control,5.0,11,1,98.62327575683594,494.4109916687012,935,1
346,control,6.0,5,1,583.2607746124268,583.2598209381104,998,1
347,control,7.0,2,1,1004.2202472686768,1004.2140483856201,1139,1
348,control,8.0,2,0,97.83172607421875,725.2531051635742,1044,1
349,control,9.0,15,1,658.1671237945557,658.1640243530273,881,1
350,control,10.0,2,0,746.8938827514648,746.8926906585693,1486,1
351,control,11.0,5,1,516.6871547698975,516.686201095581,1142,1
352,control,12.0,6,1,525.4120826721191,525.4061222076416,996,1
353,control,13.0,2,1,727.2448539733887,727.2388935089111,801,1
354,control,14.0,9,1,813.2290840148926,813.2281303405762,1119,1
355,control,15.0,2,0,628.8540363311768,628.852128982544,1247,1
356,control,16.0,2,0,725.5711555480957,725.5702018737793,1271,1
357,control,17.0,2,1,757.249116897583,757.2472095489502,1208,1
358,control,18.0,6,0,821.9399452209473,821.936845779419,1279,1
359,control,19.0,9,1,659.6889495849609,659.6829891204834,1030,1
360,control,20.0,2,1,736.6600036621094,736.6571426391602,916,1
361,control,21.0,12,1,549.921989440918,549.9210357666016,1037,1
362,control,22.0,5,1,747.2939491271973,747.2929954528809,1461,1
363,control,23.0,6,0,715.0380611419678,715.0368690490723,993,1
364,control,24.0,6,0,602.7112007141113,602.7052402496338,850,1
365,control,25.0,9,0,878.7307739257812,878.7298202514648,1449,1
366,control,26.0,11,1,596.1918830871582,596.1909294128418,999,1
367,control,27.0,12,1,582.4089050292969,582.4077129364014,1246,1
368,control,28.0,12,0,747.3330497741699,747.3320960998535,934,1
369,control,29.0,11,1,659.4953536987305,659.4932079315186,1162,1
370,control,30.0,12,0,593.148946762085,593.1429862976074,1262,1
371,control,5.0,9,1,66.32328033447266,490.08917808532715,1075,1
372,control,6.0,5,1,99.15685653686523,594.8119163513184,1153,1
373,control,7.0,1,1,100.09527206420898,591.8960571289062,1162,1
374,control,8.0,5,1,66.40791893005371,491.68992042541504,1344,1
375,control,9.0,14,1,490.4172420501709,490.4162883758545,1434,1
376,control,10.0,5,0,828.563928604126,828.5632133483887,981,0
377,control,10.0,5,1,491.9459819793701,491.940975189209,1184,1
378,control,11.0,5,1,495.9597587585449,495.9547519683838,960,1
379,control,12.0,6,1,594.1519737243652,594.1457748413086,1012,1
380,control,13.0,1,0,758.3248615264893,758.324146270752,1213,1
381,control,14.0,8,1,593.6710834503174,593.6629772186279,1208,1
382,control,15.0,5,0,715.4529094696045,715.451717376709,1209,1
383,control,16.0,5,0,813.892126083374,813.8911724090576,1151,1
384,control,17.0,1,0,834.8360061645508,834.8329067230225,1103,1
385,control,18.0,8,1,647.5427150726318,647.5419998168945,1126,1
386,control,19.0,8,1,1056.4749240875244,1056.4680099487305,897,1
387,control,20.0,1,0,824.5611190795898,824.559211730957,866,1
388,control,21.0,12,1,922.4109649658203,922.407865524292,1050,1
389,control,22.0,5,1,660.2950096130371,660.2909564971924,977,1
390,control,23.0,8,0,594.2521095275879,594.2511558532715,1031,1
391,control,24.0,8,1,652.4949073791504,652.4930000305176,1416,1
392,control,25.0,11,1,592.4961566925049,592.4930572509766,1157,1
393,control,26.0,9,1,492.27285385131836,492.2671318054199,1313,1
394,control,27.0,11,0,932.1069717407227,932.096004486084,866,1
395,control,28.0,13,1,758.7361335754395,758.7342262268066,1444,1
396,control,29.0,11,1,989.5670413970947,989.5663261413574,1310,1
397,control,30.0,14,1,660.1319313049316,660.1271629333496,1199,1
1,quadbright,5.0,20,1,99.02381896972656,624.8950958251953,1262,1
2,quadbright,6.0,20,1,98.98185729980469,889.6429538726807,981,1
3,quadbright,7.0,20,1,133.77785682678223,628.6368370056152,812,1
4,quadbright,8.0,20,1,131.88886642456055,624.737024307251,1316,1
5,quadbright,9.0,20,1,427.3200035095215,427.3180961608887,914,1
6,quadbright,10.0,20,1,527.1413326263428,527.137041091919,863,1
7,quadbright,11.0,20,1,494.2178726196289,494.2128658294678,936,1
8,quadbright,12.0,20,1,589.3771648406982,589.371919631958,1038,1
9,quadbright,13.0,20,1,496.92726135253906,496.92320823669434,1028,1
10,quadbright,14.0,20,1,624.2537498474121,624.2499351501465,1203,1
11,quadbright,15.0,20,1,634.7572803497314,634.7510814666748,1366,1
12,quadbright,16.0,20,1,681.1912059783936,681.1890602111816,911,1
13,quadbright,17.0,20,1,591.4068222045898,591.4046764373779,1249,1
14,quadbright,18.0,20,1,691.9100284576416,691.9059753417969,1001,1
15,quadbright,19.0,20,1,593.1479930877686,593.1458473205566,962,1
16,quadbright,20.0,20,1,624.1891384124756,624.1869926452637,1169,1
17,quadbright,21.0,20,1,532.6657295227051,532.6528549194336,992,1
18,quadbright,22.0,20,1,593.2190418243408,593.209981918335,1395,1
19,quadbright,23.0,20,1,495.17297744750977,495.17178535461426,1059,1
20,quadbright,24.0,20,1,593.26171875,593.2559967041016,1423,1
21,quadbright,25.0,20,1,494.92716789245605,494.92597579956055,1091,1
22,quadbright,26.0,20,1,592.5407409667969,592.5388336181641,1151,0
23,quadbright,26.0,20,1,491.9729232788086,491.9629096984863,1441,1
24,quadbright,27.0,20,1,690.9999847412109,690.9980773925781,886,1
25,quadbright,28.0,20,0,1406.2938690185547,1406.2929153442383,1445,1
26,quadbright,29.0,20,1,593.818187713623,593.8160419464111,1161,1
27,quadbright,30.0,20,1,595.0579643249512,595.0567722320557,967,1
28,quadbright,5.0,20,1,99.56812858581543,681.9078922271729,1137,1
29,quadbright,6.0,20,1,692.34299659729,692.3389434814453,1214,1
30,quadbright,7.0,20,1,98.69885444641113,492.7706718444824,1407,1
31,quadbright,8.0,20,1,99.41816329956055,500.22411346435547,1034,1
32,quadbright,9.0,20,1,98.8168716430664,490.96012115478516,1317,1
33,quadbright,10.0,20,1,603.6858558654785,603.6829948425293,1096,1
34,quadbright,11.0,20,1,1188.4510517120361,1188.4469985961914,1331,1
35,quadbright,12.0,20,1,99.08890724182129,781.1291217803955,1040,1
36,quadbright,13.0,20,1,594.0399169921875,594.038724899292,1175,1
37,quadbright,14.0,20,1,590.3809070587158,590.378999710083,1455,1
38,quadbright,15.0,20,1,692.7280426025391,692.7199363708496,1077,1
39,quadbright,16.0,20,1,690.8338069915771,690.828800201416,829,1
40,quadbright,17.0,20,1,592.0381546020508,592.0331478118896,1336,0
41,quadbright,17.0,20,1,681.5056800842285,681.5047264099121,1088,1
42,quadbright,18.0,20,1,603.7309169769287,603.7287712097168,816,1
43,quadbright,19.0,20,1,691.1838054656982,691.1811828613281,817,1
44,quadbright,20.0,20,1,591.9289588928223,591.9218063354492,1159,1
45,quadbright,21.0,20,1,702.9080390930176,702.9061317443848,1295,1
46,quadbright,22.0,20,1,692.8749084472656,692.8677558898926,1308,1
47,quadbright,23.0,20,1,603.9729118347168,603.971004486084,1493,1
48,quadbright,24.0,20,1,691.5128231048584,691.5097236633301,850,1
49,quadbright,25.0,20,1,593.4047698974609,593.4038162231445,1165,1
50,quadbright,26.0,20,1,731.8530082702637,731.8460941314697,1049,1
51,quadbright,27.0,20,1,813.0698204040527,813.0688667297363,1279,1
52,quadbright,28.0,23,1,699.3868350982666,699.3837356567383,1466,1
53,quadbright,29.0,20,1,725.902795791626,725.9018421173096,1165,1
54,quadbright,30.0,20,1,1293.7920093536377,1293.785810470581,969,1
55,quadbright,5.0,17,1,197.60823249816895,603.5282611846924,1189,0
56,quadbright,5.0,17,1,92.49711036682129,494.0011501312256,1312,1
57,quadbright,6.0,17,1,97.38516807556152,626.0199546813965,1026,1
58,quadbright,7.0,17,1,99.37834739685059,593.5132503509521,986,1
59,quadbright,8.0,17,1,695.2331066131592,695.2311992645264,1061,1
60,quadbright,9.0,17,1,681.1881065368652,681.1869144439697,840,1
61,quadbright,10.0,17,1,189.94903564453125,692.2469139099121,1378,1
62,quadbright,11.0,17,1,526.4360904693604,526.432991027832,1454,1
63,quadbright,12.0,17,1,493.574857711792,493.5731887817383,973,1
64,quadbright,13.0,17,1,495.1930046081543,495.1910972595215,1226,0
65,quadbright,13.0,17,1,401.8559455871582,401.84783935546875,1392,1
66,quadbright,14.0,17,1,593.468189239502,593.4650897979736,1033,1
67,quadbright,15.0,17,1,901.0951519012451,901.090145111084,907,1
68,quadbright,16.0,17,1,494.0152168273926,494.0049648284912,1077,1
69,quadbright,17.0,17,1,494.0650463104248,494.0640926361084,1107,1
70,quadbright,18.0,17,1,601.768970489502,601.7627716064453,981,1
71,quadbright,19.0,17,1,602.3428440093994,602.3359298706055,918,1
72,quadbright,20.0,17,1,691.3998126983643,691.3976669311523,988,1
73,quadbright,21.0,17,1,593.0039882659912,592.9920673370361,1214,1
74,quadbright,22.0,17,1,688.5490417480469,688.5430812835693,969,1
75,quadbright,23.0,17,1,793.9400672912598,793.9369678497314,1096,0
76,quadbright,23.0,17,1,584.7949981689453,584.7930908203125,1330,1
77,quadbright,24.0,17,1,834.4969749450684,834.4929218292236,1260,1
78,quadbright,25.0,17,1,604.1650772094727,604.1598320007324,1493,1
79,quadbright,26.0,17,1,683.5758686065674,683.5746765136719,1298,1
80,quadbright,27.0,17,1,604.6097278594971,604.6040058135986,880,1
81,quadbright,28.0,23,1,989.811897277832,989.8099899291992,1088,1
82,quadbright,29.0,17,1,801.9239902496338,801.9142150878906,1093,1
83,quadbright,30.0,17,1,1386.664867401123,1386.6639137268066,821,1
84,quadbright,5.0,17,1,98.92797470092773,534.6519947052002,962,1
85,quadbright,6.0,17,1,101.66597366333008,504.8840045928955,1140,1
86,quadbright,7.0,17,1,99.1830825805664,899.9879360198975,846,1
87,quadbright,8.0,17,1,780.5380821228027,780.5371284484863,1421,1
88,quadbright,9.0,17,1,290.87114334106445,785.2339744567871,1092,1
89,quadbright,10.0,17,1,724.189043045044,724.1840362548828,806,1
90,quadbright,11.0,17,1,790.8270359039307,790.8210754394531,1394,1
91,quadbright,12.0,17,1,702.9709815979004,702.9669284820557,896,1
92,quadbright,13.0,17,1,803.0440807342529,803.0400276184082,1065,1
93,quadbright,14.0,17,1,594.1751003265381,594.1739082336426,1318,1
94,quadbright,15.0,17,1,792.4439907073975,792.4389839172363,837,1
95,quadbright,16.0,17,1,923.8419532775879,923.839807510376,1146,1
96,quadbright,17.0,17,1,657.4559211730957,657.4509143829346,853,1
97,quadbright,18.0,17,1,713.6211395263672,713.6192321777344,1331,1
98,quadbright,19.0,17,1,603.8939952850342,603.8920879364014,1249,1
99,quadbright,20.0,17,1,592.8308963775635,592.8249359130859,1274,1
100,quadbright,21.0,17,1,791.7869091033936,791.7859554290771,889,1
101,quadbright,22.0,17,1,592.2560691833496,592.2539234161377,1094,1
102,quadbright,23.0,17,1,492.5520420074463,492.54703521728516,939,1
103,quadbright,24.0,17,1,594.0890312194824,594.0878391265869,1204,1
104,quadbright,25.0,17,1,586.0621929168701,586.0610008239746,1030,1
105,quadbright,26.0,17,1,591.8400287628174,591.832160949707,1111,1
106,quadbright,27.0,17,1,682.7900409698486,682.7890872955322,956,1
107,quadbright,28.0,20,1,659.3132019042969,659.3122482299805,1028,1
108,quadbright,29.0,17,1,702.8870582580566,702.880859375,1122,1
109,quadbright,30.0,17,1,603.7468910217285,603.7428379058838,1402,1
110,quadbright,5.0,14,1,105.2088737487793,534.8870754241943,822,1
111,quadbright,6.0,14,1,99.1358757019043,494.22311782836914,949,1
112,quadbright,7.0,14,1,98.65617752075195,494.035005569458,887,1
113,quadbright,8.0,14,1,102.24676132202148,485.0797653198242,986,1
114,quadbright,9.0,14,1,494.45581436157227,494.45104598999023,991,1
115,quadbright,10.0,14,1,494.54498291015625,494.5399761199951,831,1
116,quadbright,11.0,14,1,527.1811485290527,527.1801948547363,1434,1
117,quadbright,12.0,14,1,591.8262004852295,591.820240020752,1257,1
118,quadbright,13.0,14,1,493.87073516845703,493.8638210296631,1216,1
119,quadbright,14.0,14,1,592.5099849700928,592.5071239471436,1084,1
120,quadbright,15.0,14,1,496.8409538269043,496.837854385376,1099,1
121,quadbright,16.0,14,1,593.71018409729,593.7080383300781,986,1
122,quadbright,17.0,14,1,493.43276023864746,493.4258460998535,1488,1
123,quadbright,18.0,14,1,700.859785079956,700.855016708374,1375,1
124,quadbright,19.0,14,1,497.95985221862793,497.9588985443115,1133,1
125,quadbright,20.0,14,1,794.6460247039795,794.644832611084,1394,1
126,quadbright,21.0,14,1,692.3477649688721,692.3468112945557,1496,1
127,quadbright,22.0,14,1,496.2887763977051,496.28591537475586,1301,1
128,quadbright,23.0,14,1,780.1451683044434,780.144214630127,835,1
129,quadbright,24.0,14,1,703.7689685821533,703.7649154663086,1150,1
130,quadbright,25.0,14,1,729.8390865325928,729.835033416748,804,1
131,quadbright,26.0,14,1,600.5730628967285,600.5699634552002,1133,1
132,quadbright,27.0,14,1,494.31300163269043,494.3082332611084,1222,1
133,quadbright,28.0,20,0,792.0210361480713,792.0200824737549,1287,1
134,quadbright,29.0,14,1,592.048168182373,592.0429229736328,1197,1
135,quadbright,30.0,14,1,798.8369464874268,798.8331317901611,1017,1
136,quadbright,5.0,14,1,103.28507423400879,527.7981758117676,1129,1
137,quadbright,6.0,14,0,98.39487075805664,537.013053894043,1005,1
138,quadbright,7.0,14,1,98.65069389343262,428.189754486084,1151,1
139,quadbright,8.0,14,1,230.27300834655762,514.8289203643799,1160,1
140,quadbright,9.0,14,1,436.229944229126,436.20991706848145,1144,1
141,quadbright,10.0,14,1,604.7420501708984,604.7379970550537,1194,1
142,quadbright,11.0,14,1,603.5840511322021,603.5823822021484,828,1
143,quadbright,12.0,14,1,484.0428829193115,484.0419292449951,809,1
144,quadbright,13.0,14,1,484.27796363830566,484.27700996398926,1045,1
145,quadbright,14.0,14,1,622.6439476013184,622.6379871368408,815,1
146,quadbright,15.0,14,1,494.797945022583,494.7969913482666,1469,1
147,quadbright,16.0,14,1,482.8639030456543,482.8619956970215,931,1
148,quadbright,17.0,14,0,791.0387516021729,791.0377979278564,879,1
149,quadbright,18.0,14,1,490.952730178833,490.952730178833,1206,1
150,quadbright,19.0,14,1,594.3319797515869,594.3307876586914,1239,1
151,quadbright,20.0,14,1,503.3700466156006,503.36408615112305,1149,1
152,quadbright,21.0,14,1,492.48194694519043,492.480993270874,970,1
153,quadbright,22.0,14,1,494.9800968170166,494.9791431427002,1130,1
154,quadbright,23.0,14,1,890.7668590545654,890.7649517059326,1205,1
155,quadbright,24.0,14,1,1022.4649906158447,1022.4640369415283,1280,1
156,quadbright,25.0,14,1,629.8260688781738,629.8172473907471,1310,1
157,quadbright,26.0,14,1,614.3848896026611,614.3839359283447,1216,1
158,quadbright,27.0,14,0,791.9061183929443,791.9039726257324,1160,1
159,quadbright,28.0,23,1,593.1038856506348,593.1026935577393,904,1
160,quadbright,29.0,14,1,693.2170391082764,693.2158470153809,921,1
161,quadbright,30.0,14,0,791.66579246521,791.6641235351562,903,1
162,quadbright,5.0,11,1,99.03693199157715,494.8539733886719,1241,1
163,quadbright,6.0,17,1,98.9069938659668,493.09420585632324,986,1
164,quadbright,7.0,11,1,502.1340847015381,502.13098526000977,843,1
165,quadbright,8.0,11,1,494.33279037475586,494.33088302612305,1380,1
166,quadbright,9.0,11,1,164.69287872314453,592.2410488128662,836,1
167,quadbright,10.0,11,1,99.64323043823242,493.8311576843262,1057,1
168,quadbright,11.0,11,1,101.95708274841309,504.64391708374023,1415,1
169,quadbright,12.0,11,1,404.7400951385498,404.73318099975586,1382,1
170,quadbright,13.0,11,1,581.9060802459717,581.9048881530762,1025,1
171,quadbright,14.0,11,1,595.5870151519775,595.5810546875,813,1
172,quadbright,15.0,11,1,494.89498138427734,494.89378929138184,1473,1
173,quadbright,16.0,11,1,591.7119979858398,591.7062759399414,1445,1
174,quadbright,17.0,17,1,493.1521415710449,493.1478500366211,1065,1
175,quadbright,18.0,11,1,593.8870906829834,593.8830375671387,1162,1
176,quadbright,19.0,11,1,889.5440101623535,889.5430564880371,1332,1
177,quadbright,20.0,11,1,499.78113174438477,499.77803230285645,1356,1
178,quadbright,21.0,11,1,1023.6790180206299,1023.6780643463135,827,1
179,quadbright,22.0,11,0,1176.0482788085938,1176.0482788085938,1277,1
180,quadbright,23.0,11,1,591.7048454284668,591.7010307312012,1410,1
181,quadbright,24.0,11,1,584.1720104217529,584.1710567474365,1155,1
182,quadbright,25.0,11,1,787.574052810669,787.5699996948242,1084,1
183,quadbright,26.0,11,1,714.3139839172363,714.313268661499,1299,1
184,quadbright,27.0,17,1,604.2170524597168,604.2139530181885,1266,1
185,quadbright,28.0,23,1,496.07300758361816,496.07086181640625,1349,1
186,quadbright,29.0,11,0,825.768232345581,825.7582187652588,973,0
187,quadbright,29.0,11,1,591.6240215301514,591.6190147399902,1426,1
188,quadbright,30.0,17,1,592.9107666015625,592.9076671600342,940,1
189,quadbright,5.0,11,1,385.2992057800293,385.2982521057129,1330,1
190,quadbright,6.0,17,1,97.88107872009277,491.1630153656006,1186,1
191,quadbright,7.0,11,1,489.84313011169434,489.8412227630615,1398,1
192,quadbright,8.0,11,1,98.96588325500488,395.1599597930908,1382,1
193,quadbright,9.0,11,1,592.6022529602051,592.5979614257812,1331,1
194,quadbright,10.0,11,1,492.80810356140137,492.8009510040283,999,1
195,quadbright,11.0,11,1,494.8148727416992,494.8139190673828,1498,1
196,quadbright,12.0,11,1,593.3492183685303,593.346118927002,1237,1
197,quadbright,13.0,11,1,592.7901268005371,592.7870273590088,1338,1
198,quadbright,14.0,11,1,486.4540100097656,486.4532947540283,899,1
199,quadbright,15.0,11,1,495.12672424316406,495.12577056884766,1203,1
200,quadbright,16.0,11,1,582.6427936553955,582.6418399810791,1138,1
201,quadbright,17.0,17,1,495.8350658416748,495.8341121673584,1459,1
202,quadbright,18.0,11,1,691.4889812469482,691.4849281311035,1426,1
203,quadbright,19.0,11,1,892.4798965454102,892.4789428710938,851,1
204,quadbright,20.0,11,1,703.2680511474609,703.2639980316162,1118,1
205,quadbright,21.0,11,1,813.0629062652588,813.0619525909424,1110,1
206,quadbright,22.0,14,0,730.5810451507568,730.5760383605957,920,1
207,quadbright,23.0,11,1,791.0149097442627,791.0130023956299,1046,1
208,quadbright,24.0,11,1,793.9410209655762,793.9379215240479,1203,1
209,quadbright,25.0,11,1,583.4529399871826,583.4517478942871,949,1
210,quadbright,26.0,11,1,692.2509670257568,692.2492980957031,1019,1
211,quadbright,27.0,17,1,583.5578441619873,583.55712890625,1205,1
212,quadbright,28.0,21,1,493.39962005615234,493.39795112609863,1114,1
213,quadbright,29.0,11,1,703.7723064422607,703.7701606750488,1227,1
214,quadbright,30.0,17,1,592.5421714782715,592.5381183624268,940,1
215,quadbright,5.0,8,1,99.96199607849121,491.9130802154541,957,1
216,quadbright,6.0,15,1,98.6330509185791,495.35489082336426,1374,1
217,quadbright,7.0,8,1,97.58424758911133,593.5351848602295,1005,1
218,quadbright,8.0,8,1,603.1219959259033,603.1179428100586,1454,1
219,quadbright,9.0,8,1,95.20816802978516,492.34819412231445,1173,1
220,quadbright,10.0,8,1,396.26121520996094,396.26026153564453,1164,1
221,quadbright,11.0,8,1,495.82791328430176,495.8219528198242,1022,1
222,quadbright,12.0,8,1,506.38699531555176,506.3800811767578,1273,1
223,quadbright,13.0,8,1,395.53308486938477,395.52998542785645,1407,1
224,quadbright,14.0,8,1,494.60577964782715,494.60411071777344,1299,1
225,quadbright,15.0,8,1,484.4090938568115,484.4081401824951,901,1
226,quadbright,16.0,8,1,582.3898315429688,582.3879241943359,999,1
227,quadbright,17.0,15,1,504.72569465637207,504.7187805175781,1491,1
228,quadbright,18.0,8,1,593.4958457946777,593.4848785400391,922,1
229,quadbright,19.0,8,1,593.8303470611572,593.8291549682617,1288,1
230,quadbright,20.0,8,0,780.1587581634521,780.1578044891357,913,1
231,quadbright,21.0,8,0,900.6140232086182,900.6068706512451,1487,1
232,quadbright,22.0,17,1,496.5691566467285,496.56200408935547,974,1
233,quadbright,23.0,8,1,686.4478588104248,686.4469051361084,1069,1
234,quadbright,24.0,8,1,590.4209613800049,590.4192924499512,1296,1
235,quadbright,25.0,8,1,692.331075668335,692.324161529541,986,1
236,quadbright,26.0,8,0,692.3627853393555,692.3608779907227,1045,1
237,quadbright,27.0,15,1,582.0810794830322,582.0801258087158,809,1
238,quadbright,28.0,21,1,500.1978874206543,500.1957416534424,1286,1
239,quadbright,29.0,8,0,781.2149524688721,781.2139987945557,1144,1
240,quadbright,30.0,15,1,592.9667949676514,592.965841293335,963,1
241,quadbright,5.0,8,1,97.78714179992676,525.7971286773682,1039,1
242,quadbright,6.0,15,1,98.9079475402832,734.1010570526123,850,1
243,quadbright,7.0,8,1,103.424072265625,502.932071685791,1041,1
244,quadbright,8.0,8,1,99.03693199157715,498.31175804138184,854,1
245,quadbright,9.0,8,1,492.57802963256836,492.5723075866699,1453,1
246,quadbright,10.0,8,1,500.03504753112793,500.0321865081787,852,1
247,quadbright,11.0,8,1,590.3878211975098,590.385913848877,1206,1
248,quadbright,12.0,8,1,490.97418785095215,490.97323417663574,1111,1
249,quadbright,13.0,8,1,496.49572372436523,496.4947700500488,1143,1
250,quadbright,14.0,8,1,504.6510696411133,504.64534759521484,1229,1
251,quadbright,15.0,8,1,494.8010444641113,494.7967529296875,1099,1
252,quadbright,16.0,8,0,900.1960754394531,900.1898765563965,819,1
253,quadbright,17.0,15,1,1187.985897064209,1187.9849433898926,1087,1
254,quadbright,18.0,8,1,700.5667686462402,700.5648612976074,1220,1
255,quadbright,19.0,8,0,893.0439949035645,893.043041229248,815,1
256,quadbright,20.0,11,1,504.50778007507324,504.5030117034912,1126,1
257,quadbright,21.0,11,1,593.2459831237793,593.2378768920898,813,1
258,quadbright,22.0,17,1,503.61180305480957,503.6027431488037,1110,1
259,quadbright,23.0,8,1,585.6058597564697,585.6058597564697,1344,1
260,quadbright,24.0,8,1,635.1180076599121,635.1120471954346,955,1
261,quadbright,25.0,8,1,700.646162033081,700.6440162658691,1228,1
262,quadbright,26.0,11,1,594.4409370422363,594.4387912750244,1347,1
263,quadbright,27.0,15,1,597.45192527771,597.4481105804443,1398,1
264,quadbright,28.0,20,1,499.32384490966797,499.32074546813965,1080,1
265,quadbright,29.0,11,1,591.080904006958,591.0770893096924,1110,1
266,quadbright,30.0,15,1,637.4619007110596,637.4568939208984,975,1
267,quadbright,5.0,5,1,97.3978042602539,497.9078769683838,831,1
268,quadbright,6.0,14,1,91.69602394104004,487.4122142791748,1394,1
269,quadbright,7.0,5,1,104.4459342956543,498.5921382904053,1022,1
270,quadbright,8.0,5,1,501.5428066253662,501.5406608581543,1083,1
271,quadbright,9.0,5,1,692.0289993286133,692.0211315155029,925,1
272,quadbright,10.0,5,1,602.0009517669678,601.9988059997559,1170,1
273,quadbright,11.0,5,0,693.3560371398926,693.3560371398926,807,1
274,quadbright,12.0,5,1,585.1898193359375,585.1888656616211,1463,1
275,quadbright,13.0,5,1,797.8479862213135,797.8417873382568,1169,1
276,quadbright,14.0,5,1,791.8252944946289,791.8241024017334,1069,1
277,quadbright,15.0,5,1,780.5533409118652,780.5521488189697,1054,1
278,quadbright,16.0,11,1,504.2450428009033,504.2421817779541,920,1
279,quadbright,17.0,14,1,494.1282272338867,494.1282272338867,1192,1
280,quadbright,18.0,5,0,779.7720432281494,779.771089553833,1243,1
281,quadbright,19.0,11,1,538.2161140441895,538.2099151611328,1059,1
282,quadbright,20.0,11,1,517.3730850219727,517.3721313476562,1176,1
283,quadbright,21.0,11,1,812.7663135528564,812.76535987854,968,1
284,quadbright,22.0,15,1,596.2250232696533,596.2231159210205,1484,1
285,quadbright,23.0,5,0,694.1289901733398,694.1239833831787,1031,1
286,quadbright,24.0,5,0,792.0522689819336,792.0510768890381,1468,1
287,quadbright,25.0,5,1,704.049825668335,704.0450572967529,1076,1
288,quadbright,26.0,11,1,2112.3971939086914,2112.3909950256348,1376,1
289,quadbright,27.0,14,1,590.9576416015625,590.9559726715088,1299,1
290,quadbright,28.0,20,1,495.2859878540039,495.2850341796875,1163,1
291,quadbright,29.0,11,1,694.8368549346924,694.8349475860596,1197,1
292,quadbright,30.0,14,1,595.2110290527344,595.2048301696777,1446,1
293,quadbright,5.0,5,0,99.47800636291504,780.6007862091064,801,1
294,quadbright,6.0,14,1,96.73476219177246,485.18967628479004,970,1
295,quadbright,7.0,5,1,98.22297096252441,691.6069984436035,893,1
296,quadbright,8.0,5,1,594.2950248718262,594.2940711975098,1297,0
297,quadbright,8.0,5,1,527.8017520904541,527.8017520904541,1312,1
298,quadbright,9.0,5,1,504.83036041259766,504.8251152038574,1290,1
299,quadbright,10.0,5,0,815.2661323547363,815.2651786804199,1275,1
300,quadbright,11.0,8,1,492.60592460632324,492.60497093200684,1161,1
301,quadbright,12.0,5,1,626.2729167938232,626.2719631195068,1462,1
302,quadbright,13.0,5,0,724.3239879608154,724.3208885192871,1187,1
303,quadbright,14.0,5,0,693.7978267669678,693.7921047210693,1210,1
304,quadbright,15.0,5,1,988.7332916259766,988.7270927429199,1046,1
305,quadbright,16.0,11,1,593.3241844177246,593.3210849761963,877,1
306,quadbright,17.0,14,1,593.5990810394287,593.5947895050049,1472,1
307,quadbright,18.0,8,0,789.8960113525391,789.8941040039062,1184,1
308,quadbright,19.0,11,1,626.8599033355713,626.8579959869385,1263,1
309,quadbright,20.0,9,1,617.4430847167969,617.4418926239014,1164,1
310,quadbright,21.0,9,1,498.95191192626953,498.9488124847412,1146,1
311,quadbright,22.0,15,1,536.9729995727539,536.9689464569092,863,1
312,quadbright,23.0,8,0,725.1143455505371,725.1131534576416,939,1
313,quadbright,24.0,8,1,891.6969299316406,891.6926383972168,1290,0
314,quadbright,24.0,8,1,594.1729545593262,594.1710472106934,1054,1
315,quadbright,25.0,5,0,783.501148223877,783.4999561309814,1330,1
316,quadbright,26.0,9,1,690.9880638122559,690.9818649291992,1121,1
317,quadbright,27.0,14,1,493.239164352417,493.23296546936035,1402,1
318,quadbright,28.0,18,1,593.519926071167,593.5120582580566,1385,1
319,quadbright,29.0,9,1,921.4317798614502,921.428918838501,1363,1
320,quadbright,30.0,14,1,622.4329471588135,622.4179267883301,1385,1
321,quadbright,5.0,8,1,96.29487991333008,492.48290061950684,1220,1
322,quadbright,6.0,12,1,97.80526161193848,525.4731178283691,1349,1
323,quadbright,7.0,2,1,99.0898609161377,1089.8480415344238,1159,1
324,quadbright,8.0,2,1,990.6752109527588,990.6742572784424,1099,1
325,quadbright,9.0,2,1,889.9493217468262,889.9412155151367,1018,1
326,quadbright,10.0,8,1,693.5157775878906,693.511962890625,1176,1
327,quadbright,11.0,8,1,601.8099784851074,601.8061637878418,1056,1
328,quadbright,12.0,2,1,989.0139102935791,989.0120029449463,898,1
329,quadbright,13.0,8,1,682.4281215667725,682.427167892456,884,1
330,quadbright,14.0,8,1,505.63597679138184,505.6328773498535,1031,1
331,quadbright,15.0,2,1,1000.2119541168213,1000.2071857452393,1227,1
332,quadbright,16.0,9,1,691.7150020599365,691.7119026184082,1128,1
333,quadbright,17.0,12,1,614.609956741333,614.6090030670166,1331,1
334,quadbright,18.0,11,1,736.271858215332,736.2680435180664,802,1
335,quadbright,19.0,9,0,604.4020652770996,604.3989658355713,1465,1
336,quadbright,20.0,9,1,590.7280445098877,590.7211303710938,1052,1
337,quadbright,21.0,9,1,591.7398929595947,591.73583984375,1020,1
338,quadbright,22.0,14,1,702.8689384460449,702.8658390045166,1016,1
339,quadbright,23.0,11,1,594.188928604126,594.1870212554932,805,1
340,quadbright,24.0,8,1,682.4557781219482,682.4548244476318,1065,1
341,quadbright,25.0,8,1,705.4660320281982,705.4641246795654,879,1
342,quadbright,26.0,9,1,682.4548244476318,682.4548244476318,902,1
343,quadbright,27.0,12,1,704.0190696716309,704.0119171142578,1422,1
344,quadbright,28.0,18,1,527.7400016784668,527.7390480041504,1387,1
345,quadbright,29.0,9,1,737.6530170440674,737.6492023468018,896,1
346,quadbright,30.0,12,1,526.9031524658203,526.9021987915039,931,1
347,quadbright,5.0,8,1,101.49788856506348,601.7899513244629,968,1
348,quadbright,6.0,12,1,98.55985641479492,484.52091217041016,1417,1
349,quadbright,7.0,2,1,92.32807159423828,880.9249401092529,1309,1
350,quadbright,8.0,2,0,98.99067878723145,802.7560710906982,972,1
351,quadbright,9.0,2,0,781.5799713134766,781.5778255462646,1128,1
352,quadbright,10.0,8,1,592.8928852081299,592.8871631622314,1088,1
353,quadbright,11.0,6,1,701.4050483703613,701.3938426971436,1472,1
354,quadbright,12.0,2,0,791.053056716919,791.0449504852295,1073,1
355,quadbright,13.0,8,1,492.64001846313477,492.6300048828125,918,1
356,quadbright,14.0,8,1,604.9447059631348,604.94065284729,1427,1
357,quadbright,15.0,2,1,891.1828994750977,891.1750316619873,1032,1
358,quadbright,16.0,9,1,491.47605895996094,491.4741516113281,1467,1
359,quadbright,17.0,12,1,599.5221138000488,599.520206451416,1321,1
360,quadbright,18.0,11,1,496.0000514984131,495.9979057312012,1119,1
361,quadbright,19.0,11,1,582.6902389526367,582.6890468597412,1320,1
362,quadbright,20.0,8,1,826.4403343200684,826.4331817626953,1053,1
363,quadbright,21.0,8,1,736.5169525146484,736.5100383758545,935,1
364,quadbright,22.0,14,1,590.8679962158203,590.8589363098145,1406,1
365,quadbright,23.0,11,1,694.9841976165771,694.9832439422607,1308,1
366,quadbright,24.0,6,0,786.7281436920166,786.7259979248047,1244,1
367,quadbright,25.0,8,1,788.3729934692383,788.3691787719727,1434,1
368,quadbright,26.0,8,1,891.2680149078369,891.2591934204102,920,1
369,quadbright,27.0,12,1,593.137264251709,593.1351184844971,1250,1
370,quadbright,28.0,17,1,592.4379825592041,592.4301147460938,896,1
371,quadbright,29.0,8,0,699.8288631439209,699.8188495635986,1212,1
372,quadbright,30.0,12,1,824.9168395996094,824.9096870422363,1098,1
373,quadbright,5.0,6,1,99.3800163269043,561.7921352386475,1411,1
374,quadbright,6.0,11,1,99.3490219116211,560.3399276733398,1101,1
375,quadbright,7.0,1,0,101.50885581970215,823.1561183929443,1481,1
376,quadbright,8.0,5,1,98.85501861572266,472.43809700012207,1028,1
377,quadbright,9.0,5,0,758.2190036773682,758.2151889801025,1428,1
378,quadbright,10.0,6,0,768.0680751800537,768.0623531341553,1017,1
379,quadbright,11.0,6,1,561.3589286804199,561.3477230072021,1330,1
380,quadbright,12.0,5,0,923.7148761749268,923.7060546875,1185,1
381,quadbright,13.0,6,1,660.8049869537354,660.804033279419,1370,1
382,quadbright,14.0,6,1,758.408784866333,758.4078311920166,1158,1
383,quadbright,15.0,1,1,1021.4779376983643,1021.4757919311523,920,1
384,quadbright,16.0,8,0,1331.3159942626953,1331.3100337982178,1145,1
385,quadbright,17.0,11,1,756.695032119751,756.6919326782227,1271,1
386,quadbright,18.0,9,0,658.1339836120605,658.1320762634277,1356,1
387,quadbright,19.0,11,1,716.0391807556152,716.0360813140869,1185,1
388,quadbright,20.0,8,1,835.7088565826416,835.7038497924805,934,1
389,quadbright,21.0,8,1,592.1847820281982,592.1800136566162,1027,1
390,quadbright,22.0,12,0,731.6877841949463,731.6808700561523,1211,1
391,quadbright,23.0,9,1,734.3292236328125,734.3192100524902,1187,1
392,quadbright,24.0,8,0,981.3387393951416,981.3380241394043,1037,1
393,quadbright,25.0,6,1,1265.0821208953857,1265.075922012329,1288,1
394,quadbright,26.0,8,0,821.4859962463379,821.4828968048096,1403,1
395,quadbright,27.0,11,0,726.9980907440186,726.9918918609619,1473,1
396,quadbright,28.0,17,1,654.1397571563721,654.1378498077393,830,1
397,quadbright,29.0,9,1,582.5178623199463,582.5169086456299,1156,1
398,quadbright,30.0,11,0,825.2921104431152,825.2911567687988,879,1
