trial,condition,eccentricity,magnitude,correct,srt_ms,keyboard_rt_ms,pre_change_ms,valid
1,control,5.0,20,1,97.3501205444336,494.42505836486816,1255,1
2,control,6.0,20,1,98.33025932312012,526.8490314483643,1351,1
3,control,7.0,20,1,199.8121738433838,526.1528491973877,1464,1
4,control,8.0,20,1,988.0678653717041,988.0640506744385,1379,1
5,control,9.0,20,1,492.3279285430908,492.2947883605957,1045,1
6,control,10.0,20,1,495.7549571990967,495.7540035247803,1237,1
7,control,11.0,20,1,497.6348876953125,497.6320266723633,1327,1
8,control,12.0,20,1,494.1539764404297,494.1520690917969,1410,1
9,control,13.0,20,0,498.1231689453125,498.1200695037842,983,1
10,control,14.0,20,1,495.1469898223877,495.1450824737549,1056,1
11,control,15.0,20,1,494.80509757995605,494.80295181274414,1222,1
12,control,16.0,20,1,495.1620101928711,495.1608180999756,957,1
13,control,17.0,20,1,494.1377639770508,494.13609504699707,1050,1
14,control,18.0,20,1,396.9709873199463,396.9688415527344,805,1
15,control,19.0,20,1,911.1068248748779,911.1056327819824,840,1
16,control,20.0,20,1,328.869104385376,328.86815071105957,1229,1
17,control,21.0,20,1,392.9262161254883,392.92001724243164,1033,1
18,control,22.0,20,1,394.99807357788086,394.99616622924805,1194,1
19,control,23.0,20,1,582.7860832214355,582.7829837799072,1084,1
20,control,24.0,20,1,593.6529636383057,593.6489105224609,1301,1
21,control,25.0,20,1,399.40881729125977,399.40571784973145,1485,1
22,control,26.0,20,1,922.3241806030273,922.3220348358154,1336,1
23,control,27.0,20,1,496.84882164001465,496.8440532684326,1298,1
24,control,28.0,20,1,483.77180099487305,483.76965522766113,918,1
25,control,29.0,20,1,503.84998321533203,503.8480758666992,1379,1
26,control,30.0,20,1,993.1788444519043,993.175745010376,1220,1
27,control,5.0,20,1,100.77500343322754,681.2169551849365,928,1
28,control,6.0,20,1,200.3500461578369,493.6079978942871,1151,1
29,control,7.0,20,1,131.92296028137207,540.5359268188477,1422,1
30,control,8.0,20,1,494.8158264160156,494.8141574859619,875,1
31,control,9.0,20,1,537.8789901733398,537.8768444061279,867,1
32,control,10.0,20,1,494.14992332458496,494.14610862731934,1453,1
33,control,11.0,20,1,493.47734451293945,493.47424507141113,1181,1
34,control,12.0,20,1,399.1410732269287,399.1379737854004,1039,1
35,control,13.0,23,1,394.49381828308105,394.49000358581543,976,1
36,control,14.0,20,1,398.3738422393799,591.951847076416,1458,1
37,control,15.0,20,1,1921.4558601379395,1921.4518070220947,999,1
38,control,16.0,20,1,1281.0497283935547,1281.048059463501,917,1
39,control,17.0,20,1,2012.213945388794,2012.211799621582,1485,0
40,control,17.0,20,1,398.75078201293945,398.74887466430664,1280,1
41,control,18.0,20,1,396.1148262023926,396.1138725280762,914,1
42,control,19.0,20,1,594.2871570587158,594.2840576171875,1090,1
43,control,20.0,20,1,494.94409561157227,494.94099617004395,801,1
44,control,21.0,20,1,598.7567901611328,598.7539291381836,1180,1
45,control,22.0,20,1,594.9907302856445,594.9881076812744,970,1
46,control,23.0,20,1,891.5421962738037,891.5390968322754,928,1
47,control,24.0,20,1,493.00599098205566,493.00408363342285,941,1
48,control,25.0,20,1,495.0888156890869,495.0878620147705,1231,1
49,control,26.0,20,1,494.22693252563477,494.2059516906738,996,1
50,control,27.0,20,1,494.844913482666,494.8410987854004,1479,1
51,control,28.0,20,1,397.0828056335449,397.0801830291748,994,1
52,control,29.0,20,1,887.2170448303223,887.213945388794,1161,1
53,control,30.0,20,1,586.266040802002,586.2641334533691,1279,1
54,control,5.0,17,1,97.49507904052734,493.5779571533203,1388,1
55,control,6.0,17,1,99.16901588439941,494.3809509277344,1169,1
56,control,7.0,17,1,98.14715385437012,492.60902404785156,1199,1
57,control,8.0,17,1,498.8720417022705,498.8689422607422,1442,1
58,control,9.0,17,1,396.67320251464844,889.3229961395264,838,1
59,control,10.0,17,1,498.9471435546875,498.9449977874756,1195,1
60,control,11.0,17,1,394.1612243652344,394.15717124938965,1218,1
61,control,12.0,17,1,430.06324768066406,430.06205558776855,849,1
62,control,13.0,23,1,495.91612815856934,495.9149360656738,843,1
63,control,14.0,17,1,394.7641849517822,394.7572708129883,1015,1
64,control,15.0,17,0,2103.7991046905518,2103.79695892334,911,1
65,control,16.0,17,1,425.0969886779785,425.08983612060547,1178,1
66,control,17.0,17,1,495.03588676452637,495.03397941589355,1409,1
67,control,18.0,17,1,399.6109962463379,399.6081352233887,1097,1
68,control,19.0,17,1,427.1821975708008,427.17790603637695,1011,1
69,control,20.0,17,1,528.3138751983643,528.3129215240479,1440,1
70,control,21.0,17,1,527.4238586425781,527.4219512939453,833,1
71,control,22.0,17,1,1024.98197555542,1024.9788761138916,1395,1
72,control,23.0,17,1,494.8160648345947,494.8098659515381,1494,1
73,control,24.0,17,1,495.43023109436035,495.42808532714844,960,1
74,control,25.0,17,1,692.633867263794,692.6290988922119,860,0
75,control,25.0,17,1,494.4190979003906,494.4150447845459,1104,1
76,control,26.0,17,1,493.12901496887207,493.12591552734375,1285,1
77,control,27.0,17,1,493.9379692077637,493.93725395202637,954,1
78,control,28.0,17,1,485.23712158203125,485.23592948913574,1345,0
79,control,28.0,17,1,493.1349754333496,493.1309223175049,1309,1
80,control,29.0,17,1,491.61410331726074,491.610050201416,1170,1
81,control,30.0,17,1,693.2389736175537,693.2377815246582,946,1
82,control,5.0,17,1,96.37880325317383,526.9618034362793,970,1
83,control,6.0,17,1,99.5168685913086,493.6830997467041,841,1
84,control,7.0,17,1,99.3189811706543,890.1047706604004,1349,1
85,control,8.0,17,1,396.975040435791,396.9719409942627,841,1
86,control,9.0,17,1,600.4698276519775,600.4681587219238,1086,1
87,control,10.0,17,1,97.90992736816406,1805.7739734649658,1392,1
88,control,11.0,17,1,438.0316734313965,438.02905082702637,850,1
89,control,12.0,17,1,1407.5090885162354,1407.508373260498,1217,1
90,control,13.0,20,1,792.1080589294434,792.1068668365479,1408,1
91,control,14.0,17,1,494.8620796203613,494.8601722717285,1163,1
92,control,15.0,20,1,426.7241954803467,426.71704292297363,1479,1
93,control,16.0,17,1,594.8410034179688,594.8379039764404,1428,1
94,control,17.0,17,1,571.6111660003662,571.6092586517334,1003,1
95,control,18.0,17,1,595.0818061828613,595.0808525085449,864,1
96,control,19.0,17,1,496.8249797821045,496.81878089904785,1063,1
97,control,20.0,17,1,1910.2721214294434,1910.2678298950195,862,1
98,control,21.0,17,1,603.173017501831,603.1651496887207,1167,1
99,control,22.0,17,1,328.92918586730957,328.92799377441406,1497,1
100,control,23.0,17,1,493.79491806030273,493.79491806030273,1103,1
101,control,24.0,17,1,505.7990550994873,505.7969093322754,1375,1
102,control,25.0,17,1,494.7671890258789,494.7671890258789,1309,1
103,control,26.0,17,1,406.22830390930176,406.2221050262451,1474,1
104,control,27.0,17,1,385.3318691253662,385.3299617767334,803,1
105,control,28.0,17,1,393.4438228607178,393.44286918640137,969,1
106,control,29.0,17,1,592.0290946960449,592.0259952545166,1093,1
107,control,30.0,17,1,492.9230213165283,492.919921875,1031,1
108,control,5.0,14,1,98.33908081054688,395.3831195831299,1239,1
109,control,6.0,14,1,204.8649787902832,537.9588603973389,1021,1
110,control,7.0,14,1,615.8332824707031,615.8320903778076,1215,1
111,control,8.0,14,1,98.62923622131348,494.3070411682129,852,1
112,control,9.0,14,1,625.9951591491699,625.9899139404297,1232,1
113,control,10.0,14,0,98.95682334899902,1493.8719272613525,1156,1
114,control,11.0,14,1,495.0268268585205,495.01800537109375,1395,1
115,control,12.0,14,1,724.2329120635986,724.2269515991211,1087,1
116,control,13.0,20,1,595.80397605896,595.792293548584,1068,1
117,control,14.0,14,1,494.0659999847412,494.0629005432129,1402,1
118,control,14.0,14,1,494.0659999847412,4287.836074829102,1402,1
119,control,15.0,20,1,601.891040802002,601.8850803375244,884,1
120,control,16.0,14,1,989.0422821044922,989.037036895752,976,1
121,control,17.0,14,1,605.0348281860352,605.0319671630859,1248,1
122,control,18.0,14,1,494.07005310058594,494.0659999847412,1107,1
123,control,19.0,14,1,827.8729915618896,827.8720378875732,1469,1
124,control,20.0,14,1,492.8410053253174,492.83528327941895,1347,1
125,control,21.0,14,1,398.7557888031006,398.75316619873047,838,1
126,control,22.0,14,1,504.962682723999,504.9610137939453,1344,1
127,control,23.0,14,1,494.28462982177734,494.276762008667,1357,1
128,control,24.0,14,1,495.0108528137207,495.0089454650879,1262,1
129,control,25.0,14,1,505.42211532592773,505.4190158843994,1008,1
130,control,26.0,14,1,493.69311332702637,493.6830997467041,898,1
131,control,27.0,14,1,782.1540832519531,782.1528911590576,1463,1
132,control,28.0,14,1,497.01833724975586,497.01714515686035,838,1
133,control,29.0,14,1,493.20411682128906,493.20125579833984,1002,1
134,control,30.0,14,0,583.4441184997559,583.4429264068604,1091,1
135,control,5.0,14,0,199.77593421936035,595.4060554504395,1497,1
136,control,6.0,14,1,96.66299819946289,398.8049030303955,834,1
137,control,7.0,14,1,131.38413429260254,428.21502685546875,807,1
138,control,8.0,14,1,388.46588134765625,388.46421241760254,827,1
139,control,9.0,14,1,98.91891479492188,395.8621025085449,877,1
140,control,10.0,17,1,99.03907775878906,498.3391761779785,1026,1
141,control,11.0,14,0,396.43216133117676,396.42810821533203,1297,1
142,control,12.0,14,1,535.5429649353027,535.5398654937744,1049,1
143,control,13.0,17,1,395.17879486083984,395.1699733734131,1277,1
144,control,15.0,18,1,502.03824043273926,502.03514099121094,818,1
145,control,16.0,14,1,1814.5461082458496,1814.5430088043213,1297,1
146,control,17.0,14,1,525.9571075439453,525.954008102417,1226,1
147,control,18.0,14,0,1121.27685546875,1121.2759017944336,1325,1
148,control,19.0,14,0,582.1988582611084,582.197904586792,1455,1
149,control,20.0,14,1,485.001802444458,485.0008487701416,1393,1
150,control,21.0,14,1,494.53210830688477,494.5261478424072,1391,1
151,control,22.0,14,1,495.7408905029297,495.73588371276855,1017,1
152,control,23.0,14,1,493.5789108276367,493.5770034790039,987,1
153,control,24.0,14,1,491.87707901000977,491.8680191040039,949,1
154,control,25.0,14,1,484.4779968261719,484.47680473327637,828,1
155,control,26.0,14,1,616.8613433837891,616.8591976165771,1085,1
156,control,27.0,14,1,495.0418472290039,495.03493309020996,1399,1
157,control,28.0,14,1,527.1763801574707,527.1751880645752,894,1
158,control,29.0,14,0,827.3410797119141,827.3370265960693,1448,1
159,control,30.0,17,1,395.86687088012695,395.86567878723145,834,1
160,control,5.0,17,1,99.6711254119873,494.9371814727783,1289,1
161,control,6.0,11,1,95.94392776489258,891.6940689086914,982,1
162,control,7.0,11,1,198.02188873291016,592.7491188049316,1184,1
163,control,8.0,11,1,902.6470184326172,902.6439189910889,1384,1
164,control,9.0,11,1,98.69694709777832,395.6170082092285,911,1
165,control,10.0,17,1,483.8848114013672,483.8838577270508,1344,1
166,control,11.0,17,1,394.38700675964355,394.3817615509033,866,1
167,control,12.0,11,1,582.84592628479,582.84592628479,832,1
168,control,13.0,17,1,425.42004585266113,425.4119396209717,889,1
169,control,14.0,11,1,495.96691131591797,495.96500396728516,1268,0
170,control,14.0,11,1,890.4209136962891,890.4192447662354,1334,1
171,control,15.0,18,1,494.45295333862305,494.45080757141113,1157,1
172,control,16.0,11,1,492.22493171691895,492.2211170196533,1468,1
173,control,17.0,11,1,487.23292350769043,487.231969833374,829,1
174,control,18.0,17,1,593.7821865081787,593.7750339508057,1129,1
175,control,19.0,17,1,493.6656951904297,493.66188049316406,1482,1
176,control,20.0,11,1,481.78887367248535,481.78791999816895,1294,1
177,control,21.0,11,1,493.52288246154785,493.52097511291504,1386,1
178,control,22.0,11,1,527.5890827178955,527.5881290435791,1047,1
179,control,23.0,11,1,627.551794052124,627.5489330291748,1301,1
180,control,24.0,11,1,496.52099609375,496.5200424194336,842,1
181,control,25.0,11,1,494.1689968109131,494.1680431365967,1113,1
182,control,26.0,11,1,494.7519302368164,494.7509765625,1112,1
183,control,27.0,11,1,494.80199813842773,494.7991371154785,1116,1
184,control,28.0,11,1,491.73617362976074,491.7318820953369,1017,1
185,control,29.0,17,1,492.8908348083496,492.8877353668213,1285,1
186,control,30.0,17,1,495.3582286834717,495.3570365905762,1447,1
187,control,5.0,17,1,99.00593757629395,495.0878620147705,1150,1
188,control,6.0,11,1,98.96278381347656,491.4679527282715,809,1
189,control,7.0,11,1,99.37000274658203,892.7047252655029,1421,1
190,control,8.0,11,1,99.32065010070801,510.44678688049316,1085,1
191,control,9.0,11,1,494.9920177459717,494.9910640716553,1326,1
192,control,10.0,15,1,494.72594261169434,494.7242736816406,1394,1
193,control,11.0,17,1,593.7280654907227,593.7249660491943,1291,1
194,control,12.0,11,1,483.3810329437256,483.3798408508301,1157,1
195,control,13.0,14,1,594.3589210510254,594.3562984466553,1331,1
196,control,14.0,11,1,596.5487957000732,596.5468883514404,1328,1
197,control,15.0,17,1,594.0859317779541,594.0840244293213,1028,1
198,control,16.0,11,1,493.0140972137451,493.0109977722168,1321,1
199,control,17.0,11,1,608.450174331665,608.4461212158203,1122,1
200,control,18.0,17,1,492.86389350891113,492.8607940673828,1254,1
201,control,19.0,17,1,494.66705322265625,494.66609954833984,1156,1
202,control,20.0,11,1,702.8548717498779,702.852725982666,1280,1
203,control,21.0,11,0,593.731164932251,593.7299728393555,1458,1
204,control,22.0,11,1,795.1838970184326,795.1829433441162,983,1
205,control,23.0,11,1,625.8528232574463,625.8506774902344,1117,1
206,control,24.0,11,1,525.0210762023926,525.015115737915,1197,1
207,control,25.0,11,1,525.993824005127,525.9928703308105,1429,1
208,control,26.0,11,1,427.53100395202637,427.52814292907715,1398,0
209,control,26.0,11,1,494.04001235961914,494.0347671508789,996,1
210,control,27.0,11,1,593.8048362731934,593.8019752502441,838,1
211,control,28.0,11,1,592.9880142211914,592.9820537567139,877,1
212,control,29.0,17,1,394.9439525604248,394.9398994445801,870,1
213,control,30.0,15,1,494.34900283813477,494.340181350708,923,1
214,control,5.0,15,1,625.7708072662354,625.7669925689697,925,0
215,control,5.0,15,1,98.79708290100098,494.97294425964355,1126,1
216,control,6.0,8,1,99.1220474243164,395.75695991516113,1174,1
217,control,7.0,8,1,203.3548355102539,598.0429649353027,1324,1
218,control,8.0,8,1,298.2809543609619,395.13278007507324,1212,1
219,control,9.0,8,1,99.17473793029785,492.9358959197998,1153,1
220,control,10.0,15,1,199.0988254547119,692.9757595062256,1361,1
221,control,11.0,15,1,626.1172294616699,626.1162757873535,965,1
222,control,12.0,8,1,393.48912239074707,393.48721504211426,1094,1
223,control,13.0,14,1,505.3560733795166,505.3532123565674,1313,1
224,control,14.0,8,1,591.4480686187744,591.4430618286133,1345,1
225,control,15.0,17,1,527.1737575531006,527.1728038787842,956,1
226,control,16.0,8,1,493.11375617980957,493.10803413391113,1281,1
227,control,17.0,8,1,624.7918605804443,624.7909069061279,1078,1
228,control,18.0,15,1,1020.7779407501221,1020.7757949829102,1450,1
229,control,19.0,15,1,624.8250007629395,624.8180866241455,1393,1
230,control,20.0,8,1,625.7917881011963,625.7908344268799,1237,1
231,control,21.0,14,1,495.0840473175049,495.0840473175049,1187,1
232,control,22.0,8,1,593.2700634002686,593.2679176330566,1136,1
233,control,23.0,8,1,483.34789276123047,483.34693908691406,1269,1
234,control,24.0,8,1,593.0571556091309,593.043327331543,939,1
235,control,25.0,8,0,792.111873626709,792.1109199523926,1378,1
236,control,26.0,8,1,599.9660491943359,599.9622344970703,1289,1
237,control,27.0,8,1,690.2866363525391,690.284013748169,1104,1
238,control,28.0,8,1,803.0331134796143,803.0319213867188,980,0
239,control,28.0,8,1,694.1370964050293,694.1349506378174,876,1
240,control,29.0,15,0,780.2958488464355,780.2948951721191,1436,1
241,control,30.0,15,0,496.57130241394043,496.5701103210449,1229,1
242,control,5.0,15,1,98.38724136352539,901.2022018432617,1375,1
243,control,6.0,8,1,99.10082817077637,396.8648910522461,1360,1
244,control,7.0,8,1,98.96993637084961,891.4399147033691,1059,1
245,control,8.0,8,1,400.08091926574707,1022.5858688354492,977,1
246,control,9.0,8,1,99.43199157714844,395.7209587097168,863,1
247,control,10.0,14,1,199.22208786010742,605.8409214019775,859,1
248,control,11.0,15,1,494.0347671508789,494.0309524536133,859,1
249,control,12.0,8,1,602.8280258178711,602.8239727020264,1309,1
250,control,13.0,11,1,493.2410717010498,493.2363033294678,952,1
251,control,14.0,8,1,496.3200092315674,496.31595611572266,941,1
252,control,15.0,15,1,395.89786529541016,395.89691162109375,989,1
253,control,16.0,8,1,427.7682304382324,427.7670383453369,1105,1
254,control,17.0,8,1,693.199872970581,693.1917667388916,805,1
255,control,18.0,15,0,494.77410316467285,494.77314949035645,1439,1
256,control,19.0,15,1,495.26190757751465,495.25904655456543,1372,1
257,control,20.0,8,1,803.1220436096191,803.1182289123535,1384,1
258,control,21.0,14,1,492.24400520324707,492.24090576171875,1296,1
259,control,22.0,8,1,607.5131893157959,607.511043548584,1133,1
260,control,23.0,8,0,980.396032333374,980.3938865661621,1198,1
261,control,24.0,8,1,586.0240459442139,586.0230922698975,1257,1
262,control,25.0,11,1,893.0759429931641,893.0730819702148,1345,1
263,control,26.0,8,0,802.8662204742432,802.8640747070312,840,1
264,control,27.0,8,1,591.0167694091797,591.0141468048096,1049,1
265,control,28.0,8,1,483.1991195678711,483.1981658935547,1098,1
266,control,29.0,17,1,595.8342552185059,595.832109451294,1187,1
267,control,30.0,17,0,682.6927661895752,682.6920509338379,1118,1
268,control,5.0,14,1,99.59292411804199,895.1077461242676,1049,1
269,control,6.0,5,1,98.90484809875488,395.7650661468506,1407,1
270,control,7.0,5,1,494.1678047180176,494.16399002075195,1410,1
271,control,8.0,5,1,493.544340133667,493.5431480407715,947,1
272,control,9.0,5,1,629.0888786315918,629.0872097015381,1236,1
273,control,10.0,14,1,98.95706176757812,527.8000831604004,1207,1
274,control,11.0,14,1,399.6319770812988,888.6330127716064,1325,1
275,control,12.0,5,0,826.4381885528564,826.4360427856445,1485,1
276,control,13.0,11,1,505.65409660339355,505.6500434875488,1087,1
277,control,14.0,5,0,434.65399742126465,434.6508979797363,1122,1
278,control,15.0,15,1,495.1448440551758,495.1438903808594,954,1
279,control,16.0,5,0,503.28803062438965,503.2837390899658,1471,1
280,control,17.0,5,1,594.5498943328857,594.5441722869873,1230,1
281,control,18.0,17,1,493.3910369873047,493.38698387145996,1142,1
282,control,19.0,14,1,493.65997314453125,493.6559200286865,983,1
283,control,20.0,5,0,499.09210205078125,499.08995628356934,1340,1
284,control,21.0,12,1,394.02174949645996,394.014835357666,1378,1
285,control,22.0,5,0,328.2580375671387,328.25589179992676,980,1
286,control,23.0,11,1,496.2806701660156,496.2780475616455,810,1
287,control,24.0,5,1,727.8311252593994,727.8289794921875,956,1
288,control,25.0,11,0,492.27404594421387,492.26903915405273,1422,1
289,control,26.0,11,1,493.2091236114502,493.20507049560547,1281,1
290,control,27.0,5,1,584.6841335296631,584.6829414367676,1406,1
291,control,28.0,5,1,526.0930061340332,526.0908603668213,1120,1
292,control,29.0,17,0,1072.242021560669,1072.2410678863525,1222,1
293,control,30.0,18,1,590.5122756958008,590.5070304870605,1024,1
294,control,5.0,14,1,198.77290725708008,595.43776512146,839,1
295,control,6.0,5,1,98.34694862365723,483.6311340332031,904,1
296,control,7.0,5,0,199.20086860656738,791.8262481689453,1209,1
297,control,8.0,5,1,524.8939990997314,524.8918533325195,912,1
298,control,9.0,5,1,133.2230567932129,628.5820007324219,1401,1
299,control,10.0,12,1,526.8981456756592,526.8971920013428,1346,1
300,control,11.0,14,1,384.9968910217285,384.9959373474121,1330,1
301,control,12.0,8,1,901.386022567749,901.3779163360596,977,1
302,control,13.0,8,1,792.644739151001,792.6416397094727,997,1
303,control,14.0,8,1,395.1871395111084,395.1849937438965,1213,1
304,control,15.0,14,1,627.2599697113037,627.2580623626709,937,0
305,control,15.0,14,1,586.0490798950195,586.0469341278076,1057,1
306,control,16.0,8,0,499.1941452026367,499.18317794799805,1010,1
307,control,17.0,5,0,586.8058204650879,586.8039131164551,1056,1
308,control,18.0,17,1,500.90599060058594,500.9028911590576,806,1
309,control,19.0,14,1,395.8442211151123,395.8430290222168,1079,1
310,control,20.0,8,0,825.3440856933594,825.3381252288818,1439,1
311,control,21.0,12,1,494.7471618652344,494.74501609802246,1167,1
312,control,22.0,8,0,623.4047412872314,623.4028339385986,1139,1
313,control,23.0,11,1,490.92602729797363,490.9231662750244,810,1
314,control,24.0,5,0,802.8538227081299,802.8509616851807,933,1
315,control,25.0,12,1,496.26922607421875,496.2592124938965,1249,1
316,control,26.0,11,1,494.7969913482666,494.7960376739502,1252,1
317,control,27.0,5,1,491.779088973999,491.7740821838379,1101,1
318,control,28.0,5,0,796.2789535522461,796.2768077850342,862,1
319,control,29.0,18,1,494.8561191558838,494.85206604003906,1010,1
320,control,30.0,18,1,494.9300289154053,494.92883682250977,1195,1
321,control,5.0,12,1,101.6998291015625,892.2860622406006,1447,1
322,control,6.0,2,1,98.53196144104004,791.4390563964844,1021,1
323,control,7.0,8,1,404.19912338256836,404.1929244995117,1261,1
324,control,8.0,2,1,98.98209571838379,593.6131477355957,913,1
325,control,9.0,2,0,693.2919025421143,693.2880878448486,1335,1
326,control,10.0,12,1,98.55103492736816,989.3600940704346,1293,1
327,control,11.0,12,1,494.42195892333984,494.42100524902344,1081,1
328,control,12.0,8,1,494.94099617004395,494.94004249572754,1425,1
329,control,13.0,8,1,797.9869842529297,797.9819774627686,1371,1
330,control,14.0,8,1,583.4972858428955,583.4963321685791,1269,1
331,control,15.0,14,1,682.213306427002,682.2121143341064,804,1
332,control,16.0,11,1,98.08993339538574,294.0969467163086,1127,1
333,control,17.0,8,1,527.5790691375732,527.5781154632568,949,1
334,control,18.0,16,0,725.4347801208496,725.4340648651123,1250,1
335,control,19.0,12,1,494.736909866333,494.7347640991211,1251,1
336,control,20.0,11,1,727.2400856018066,727.2379398345947,1302,1
337,control,21.0,11,1,493.09802055358887,493.0920600891113,1475,1
338,control,22.0,11,1,584.169864654541,584.1689109802246,1404,1
339,control,23.0,9,0,594.6660041809082,594.6621894836426,1343,1
340,control,24.0,8,0,394.4079875946045,394.4048881530762,1265,1
341,control,25.0,12,1,493.99495124816895,493.9858913421631,1480,1
342,control,26.0,9,1,494.1847324371338,494.1821098327637,916,1
343,control,27.0,2,0,602.7500629425049,602.7488708496094,1464,1
344,control,28.0,8,1,593.0500030517578,593.048095703125,1331,1
345,control,29.0,18,1,493.2079315185547,493.19982528686523,1037,1
346,control,30.0,17,1,496.243953704834,496.2420463562012,924,1
347,control,5.0,12,1,97.26405143737793,493.7701225280762,1214,1
348,control,6.0,2,1,200.6239891052246,691.5059089660645,1293,1
349,control,7.0,8,1,98.46305847167969,493.4120178222656,914,1
350,control,8.0,2,0,98.52099418640137,891.9479846954346,1322,1
351,control,9.0,5,1,495.3420162200928,495.34082412719727,1296,1
352,control,10.0,11,1,594.1131114959717,594.1109657287598,1213,1
353,control,11.0,12,1,681.372880935669,681.3719272613525,874,1
354,control,12.0,6,1,703.2198905944824,703.2167911529541,1112,1
355,control,13.0,5,1,1020.8189487457275,1020.8148956298828,1367,1
356,control,14.0,6,0,296.6001033782959,296.597957611084,1200,1
357,control,15.0,12,1,626.2240409851074,626.223087310791,900,1
358,control,16.0,11,1,494.77410316467285,494.77195739746094,844,1
359,control,17.0,8,1,724.8373031616211,724.8361110687256,1177,1
360,control,18.0,17,1,724.9510288238525,724.9510288238525,1329,1
361,control,19.0,12,1,493.20006370544434,493.1962490081787,933,1
362,control,20.0,11,1,681.6208362579346,681.6198825836182,1118,1
363,control,21.0,11,1,582.5691223144531,582.5681686401367,1033,1
364,control,22.0,11,0,692.4488544464111,692.4457550048828,1161,1
365,control,23.0,11,0,693.1567192077637,693.1557655334473,1272,1
366,control,24.0,11,1,582.1030139923096,582.1018218994141,815,1
367,control,25.0,11,1,483.94107818603516,483.94012451171875,1239,1
368,control,26.0,9,0,492.1278953552246,492.1247959136963,1320,1
369,control,27.0,5,1,593.7159061431885,593.7149524688721,1169,1
370,control,28.0,8,0,494.5690631866455,494.5681095123291,1120,1
371,control,29.0,17,1,624.8431205749512,624.840259552002,1189,1
372,control,30.0,17,1,493.7281608581543,493.7260150909424,913,1
373,control,5.0,11,1,98.79112243652344,499.3619918823242,902,1
374,control,6.0,1,0,98.30403327941895,493.328332901001,1475,1
375,control,7.0,6,1,198.26722145080566,504.2259693145752,1498,1
376,control,8.0,5,1,91.84980392456055,393.8007354736328,1131,1
377,control,9.0,5,1,417.42801666259766,417.42730140686035,1168,1
378,control,10.0,11,0,386.98506355285645,386.98410987854004,1356,1
379,control,11.0,11,1,692.0030117034912,691.9968128204346,1159,1
380,control,12.0,6,1,495.0289726257324,495.0268268585205,1342,1
381,control,13.0,5,1,823.8451480865479,823.8420486450195,1390,1
382,control,14.0,8,1,491.8627738952637,491.85705184936523,1077,1
383,control,15.0,12,1,593.93310546875,593.9321517944336,949,1
384,control,16.0,9,1,491.88876152038574,491.88685417175293,1469,1
385,control,17.0,6,1,394.3970203399658,394.3939208984375,1288,1
386,control,18.0,17,1,584.4361782073975,584.435224533081,814,1
387,control,19.0,11,1,460.2317810058594,460.22891998291016,1003,1
388,control,20.0,9,1,494.51708793640137,494.51303482055664,1293,1
389,control,21.0,9,0,801.8958568572998,801.8918037414551,1079,1
390,control,22.0,12,1,789.804220199585,789.8001670837402,1482,1
391,control,23.0,12,1,691.8339729309082,691.831111907959,1147,1
392,control,24.0,11,1,625.0460147857666,625.0429153442383,1361,1
393,control,25.0,11,1,535.9129905700684,535.9089374542236,1281,1
394,control,26.0,11,1,603.9159297943115,603.9118766784668,1449,1
395,control,27.0,5,1,504.99796867370605,504.99582290649414,1089,1
396,control,28.0,9,1,594.0749645233154,594.0737724304199,1421,1
397,control,29.0,17,1,491.6081428527832,491.6059970855713,1082,1
398,control,30.0,16,0,694.8080062866211,694.8070526123047,1320,1
1,quadbright,5.0,20,1,198.0149745941162,594.4399833679199,1264,1
2,quadbright,6.0,20,1,207.49402046203613,1493.2429790496826,1433,1
3,quadbright,7.0,20,1,595.574140548706,595.5698490142822,1449,0
4,quadbright,7.0,20,1,99.67470169067383,394.52171325683594,1428,1
5,quadbright,8.0,20,1,495.3892230987549,495.3882694244385,1106,1
6,quadbright,9.0,20,1,495.00274658203125,494.9979782104492,1317,1
7,quadbright,10.0,20,1,491.70994758605957,491.70708656311035,1160,1
8,quadbright,11.0,20,1,596.1887836456299,596.1859226226807,1100,1
9,quadbright,12.0,20,1,394.3057060241699,394.3057060241699,1350,1
10,quadbright,13.0,20,1,901.0140895843506,901.010274887085,1079,1
11,quadbright,14.0,20,1,494.8720932006836,494.8711395263672,1352,1
12,quadbright,15.0,20,1,504.20594215393066,504.20212745666504,1243,1
13,quadbright,16.0,20,1,395.3979015350342,395.3969478607178,1154,1
14,quadbright,17.0,20,1,395.6127166748047,395.60866355895996,1048,1
15,quadbright,18.0,20,1,394.41514015197754,394.4089412689209,920,1
16,quadbright,19.0,20,1,493.7760829925537,493.76988410949707,1381,1
17,quadbright,20.0,20,1,484.9658012390137,484.96365547180176,1401,1
18,quadbright,21.0,20,1,493.8549995422363,493.8528537750244,1296,1
19,quadbright,22.0,20,1,492.51794815063477,492.5119876861572,1048,1
20,quadbright,23.0,20,1,988.4731769561768,988.4700775146484,987,1
21,quadbright,24.0,20,1,613.7621402740479,613.7611865997314,1213,1
22,quadbright,25.0,20,1,592.8010940551758,592.7989482879639,883,1
23,quadbright,26.0,20,1,904.2220115661621,904.2201042175293,918,1
24,quadbright,27.0,20,1,495.8319664001465,495.82982063293457,869,1
25,quadbright,28.0,20,1,505.10191917419434,505.098819732666,856,1
26,quadbright,29.0,20,1,495.7458972930908,495.743989944458,1069,1
27,quadbright,30.0,20,1,494.8129653930664,494.81201171875,1012,1
28,quadbright,5.0,20,1,98.18434715270996,495.394229888916,1478,1
29,quadbright,6.0,20,0,100.02017021179199,891.1209106445312,1333,1
30,quadbright,7.0,20,1,97.71394729614258,592.261791229248,843,1
31,quadbright,8.0,20,1,98.86789321899414,494.28606033325195,1065,1
32,quadbright,9.0,20,1,99.59888458251953,505.0549507141113,1315,1
33,quadbright,10.0,20,1,493.7617778778076,493.7601089477539,963,1
34,quadbright,11.0,20,1,494.8558807373047,494.8549270629883,1021,1
35,quadbright,12.0,20,1,494.43721771240234,494.43626403808594,937,1
36,quadbright,13.0,20,1,395.7979679107666,395.7960605621338,1192,1
37,quadbright,14.0,20,1,1704.3931484222412,1704.3921947479248,1223,1
38,quadbright,15.0,20,1,493.37124824523926,493.36910247802734,1358,1
39,quadbright,16.0,20,0,1484.5452308654785,1484.544038772583,1415,1
40,quadbright,17.0,20,1,493.4971332550049,493.49498748779297,887,1
41,quadbright,18.0,20,1,395.8418369293213,395.8408832550049,1350,0
42,quadbright,18.0,20,1,599.7788906097412,599.7772216796875,1201,1
43,quadbright,19.0,20,1,493.3209419250488,493.3149814605713,901,1
44,quadbright,20.0,20,1,595.7860946655273,595.782995223999,1151,1
45,quadbright,21.0,20,1,494.3680763244629,494.36283111572266,1335,1
46,quadbright,22.0,20,1,496.65212631225586,496.6259002685547,871,1
47,quadbright,23.0,20,1,583.0090045928955,583.0080509185791,1427,1
48,quadbright,24.0,20,1,595.8099365234375,595.8070755004883,995,1
49,quadbright,25.0,20,1,597.1641540527344,597.1629619598389,838,1
50,quadbright,26.0,20,1,484.3320846557617,484.3311309814453,1214,1
51,quadbright,27.0,20,1,495.18775939941406,495.18370628356934,1202,0
52,quadbright,27.0,20,1,1729.6109199523926,1729.6087741851807,1376,1
53,quadbright,28.0,20,1,394.6270942687988,394.6220874786377,1008,1
54,quadbright,29.0,20,0,880.3298473358154,880.328893661499,1489,1
55,quadbright,30.0,20,1,494.89521980285645,494.88115310668945,1036,1
56,quadbright,5.0,17,1,97.4581241607666,397.9949951171875,1007,1
57,quadbright,6.0,23,1,230.72409629821777,517.3640251159668,994,1
58,quadbright,7.0,17,1,99.41506385803223,508.0692768096924,957,1
59,quadbright,8.0,17,1,495.02015113830566,495.01800537109375,1307,1
60,quadbright,9.0,17,1,494.5993423461914,494.5971965789795,1196,1
61,quadbright,10.0,17,1,791.7540073394775,791.7492389678955,1358,1
62,quadbright,11.0,17,1,394.7467803955078,394.7439193725586,1036,0
63,quadbright,11.0,17,1,497.3580837249756,497.35403060913086,952,1
64,quadbright,12.0,17,1,495.1040744781494,495.103120803833,1265,1
65,quadbright,13.0,17,1,889.6398544311523,889.6379470825195,1160,1
66,quadbright,14.0,17,1,504.957914352417,504.9560070037842,1130,1
67,quadbright,15.0,17,1,396.27790451049805,396.27695083618164,840,1
68,quadbright,16.0,23,1,484.91692543029785,484.91597175598145,1014,1
69,quadbright,17.0,17,1,529.2448997497559,529.242992401123,1465,1
70,quadbright,18.0,17,1,396.64483070373535,396.6407775878906,1310,1
71,quadbright,19.0,17,1,427.2477626800537,427.2468090057373,1248,1
72,quadbright,20.0,17,1,483.2801818847656,483.2792282104492,1001,1
73,quadbright,21.0,17,1,592.6880836486816,592.6830768585205,1163,1
74,quadbright,22.0,17,1,493.11208724975586,493.10898780822754,1486,1
75,quadbright,23.0,17,1,735.8860969543457,735.8839511871338,948,1
76,quadbright,24.0,17,1,428.1132221221924,428.1120300292969,1095,1
77,quadbright,25.0,17,1,1376.5170574188232,1376.5161037445068,845,1
78,quadbright,26.0,17,1,493.0899143218994,493.0849075317383,827,1
79,quadbright,27.0,17,0,793.5690879821777,793.5662269592285,1402,1
80,quadbright,28.0,17,1,494.8689937591553,494.86804008483887,911,1
81,quadbright,29.0,23,1,493.3948516845703,493.3929443359375,822,1
82,quadbright,30.0,17,1,494.232177734375,494.22597885131836,868,1
83,quadbright,5.0,17,1,198.04692268371582,495.12386322021484,1224,1
84,quadbright,6.0,23,1,97.02897071838379,482.7568531036377,864,1
85,quadbright,7.0,17,1,98.75202178955078,483.2429885864258,1407,1
86,quadbright,8.0,17,1,131.26301765441895,428.1799793243408,1119,1
87,quadbright,9.0,17,1,100.18014907836914,495.1441287994385,915,1
88,quadbright,10.0,17,1,397.0189094543457,397.0158100128174,867,1
89,quadbright,11.0,17,1,98.58512878417969,494.7659969329834,861,1
90,quadbright,12.0,17,1,493.25108528137207,493.24798583984375,957,1
91,quadbright,13.0,17,1,494.9359893798828,494.9350357055664,821,1
92,quadbright,14.0,17,1,494.7011470794678,494.69709396362305,1062,1
93,quadbright,15.0,17,1,795.1700687408447,795.1662540435791,1234,1
94,quadbright,16.0,23,1,594.5937633514404,594.5930480957031,1359,1
95,quadbright,17.0,17,1,493.55316162109375,493.5481548309326,1437,1
96,quadbright,18.0,17,1,494.9038028717041,494.9028491973877,1244,1
97,quadbright,19.0,17,1,834.6378803253174,834.6359729766846,1080,1
98,quadbright,20.0,17,1,526.9179344177246,526.9160270690918,801,1
99,quadbright,21.0,17,1,428.3919334411621,428.3912181854248,1197,1
100,quadbright,22.0,17,1,534.6701145172119,534.6648693084717,1160,1
101,quadbright,23.0,17,1,494.91119384765625,494.90904808044434,1195,1
102,quadbright,24.0,17,1,600.8970737457275,600.8639335632324,840,1
103,quadbright,25.0,17,1,727.2188663482666,727.2167205810547,1120,1
104,quadbright,26.0,17,1,1109.2710494995117,1109.269142150879,1286,1
105,quadbright,27.0,20,1,697.5171566009521,697.5150108337402,1341,1
106,quadbright,28.0,17,1,891.2031650543213,891.1991119384766,1051,1
107,quadbright,29.0,23,1,493.009090423584,493.00503730773926,1389,1
108,quadbright,30.0,17,0,592.339038848877,592.3361778259277,1450,1
109,quadbright,5.0,14,1,493.2701587677002,493.26300621032715,1425,1
110,quadbright,6.0,21,1,493.64709854125977,493.6380386352539,1001,1
111,quadbright,7.0,14,1,230.94820976257324,526.6890525817871,1445,1
112,quadbright,8.0,14,1,98.8321304321289,492.62523651123047,874,1
113,quadbright,9.0,14,1,102.56314277648926,593.3892726898193,857,1
114,quadbright,10.0,14,1,424.8981475830078,424.8950481414795,1235,1
115,quadbright,11.0,14,1,495.1670169830322,495.1620101928711,1321,1
116,quadbright,12.0,14,1,485.29696464538574,485.29696464538574,869,1
117,quadbright,13.0,14,1,395.77293395996094,395.766019821167,1441,1
118,quadbright,14.0,14,1,495.250940322876,495.24807929992676,1245,1
119,quadbright,15.0,14,1,593.4290885925293,593.4278964996338,1164,1
120,quadbright,16.0,21,1,879.6291351318359,879.6279430389404,925,1
121,quadbright,17.0,14,1,509.26899909973145,509.2628002166748,901,1
122,quadbright,18.0,14,1,493.649959564209,493.64566802978516,1114,1
123,quadbright,19.0,14,1,492.8708076477051,492.86890029907227,1173,1
124,quadbright,20.0,14,1,596.7197418212891,596.7178344726562,1369,1
125,quadbright,21.0,14,1,504.9557685852051,504.95290756225586,955,1
126,quadbright,22.0,14,1,681.3900470733643,681.3888549804688,1127,1
127,quadbright,23.0,14,1,584.9921703338623,584.9909782409668,1392,1
128,quadbright,24.0,14,1,590.3530120849609,590.3511047363281,1228,1
129,quadbright,25.0,14,1,591.6438102722168,591.6380882263184,1128,1
130,quadbright,26.0,14,1,494.2440986633301,494.2431449890137,1079,1
131,quadbright,27.0,20,1,394.7184085845947,394.7172164916992,1119,1
132,quadbright,28.0,14,1,1922.9960441589355,1922.9869842529297,954,1
133,quadbright,29.0,21,1,500.683069229126,500.67996978759766,888,1
134,quadbright,30.0,20,1,495.1610565185547,495.1601028442383,973,1
135,quadbright,5.0,14,1,99.10798072814941,394.7558403015137,1495,1
136,quadbright,6.0,21,1,99.00784492492676,395.80678939819336,1029,1
137,quadbright,7.0,14,1,99.04217720031738,493.53599548339844,1436,1
138,quadbright,8.0,14,1,98.74415397644043,492.840051651001,1451,1
139,quadbright,9.0,14,1,395.6029415130615,395.5950736999512,909,1
140,quadbright,10.0,14,1,494.04430389404297,494.04120445251465,1191,1
141,quadbright,11.0,14,1,493.98303031921387,493.9761161804199,1248,1
142,quadbright,12.0,14,1,393.48673820495605,393.4788703918457,1396,1
143,quadbright,13.0,14,1,1081.2251567840576,1081.2242031097412,1075,1
144,quadbright,14.0,14,1,394.52409744262695,394.52195167541504,1475,1
145,quadbright,15.0,14,1,492.3849105834961,492.3830032348633,832,1
146,quadbright,16.0,21,1,495.0442314147949,495.0432777404785,1344,1
147,quadbright,17.0,14,0,895.266056060791,895.2651023864746,982,1
148,quadbright,18.0,14,1,692.6620006561279,692.6610469818115,1151,1
149,quadbright,19.0,14,1,791.9661998748779,791.9631004333496,1148,1
150,quadbright,20.0,14,1,495.09119987487793,495.0902462005615,1493,1
151,quadbright,21.0,14,1,682.0509433746338,682.0497512817383,1000,1
152,quadbright,22.0,14,1,494.2028522491455,494.1999912261963,1373,1
153,quadbright,23.0,14,1,494.9648380279541,494.9638843536377,1466,1
154,quadbright,24.0,14,1,495.62692642211914,495.62597274780273,1355,1
155,quadbright,25.0,14,1,588.5708332061768,588.5698795318604,894,1
156,quadbright,26.0,14,1,417.6509380340576,417.6499843597412,964,1
157,quadbright,27.0,18,1,396.56615257263184,396.5568542480469,945,1
158,quadbright,28.0,14,1,485.54086685180664,485.54086685180664,1285,1
159,quadbright,29.0,21,1,500.324010848999,500.3230571746826,1402,1
160,quadbright,30.0,20,1,526.641845703125,526.6380310058594,1175,1
161,quadbright,5.0,11,0,98.76108169555664,396.2290287017822,1261,1
162,quadbright,6.0,20,1,96.5421199798584,493.6351776123047,1329,1
163,quadbright,7.0,11,1,98.88696670532227,497.04885482788086,1398,1
164,quadbright,8.0,11,1,494.25506591796875,494.25387382507324,1071,1
165,quadbright,9.0,11,1,486.00196838378906,485.99982261657715,1094,1
166,quadbright,10.0,11,1,529.3409824371338,529.3378829956055,1202,1
167,quadbright,11.0,11,1,412.07385063171387,1001.2669563293457,1052,1
168,quadbright,12.0,11,1,493.0381774902344,493.0300712585449,1366,0
169,quadbright,12.0,11,1,498.6600875854492,498.6569881439209,945,0
170,quadbright,12.0,11,1,494.92383003234863,494.920015335083,1208,1
171,quadbright,13.0,11,1,498.4738826751709,498.4719753265381,943,1
172,quadbright,14.0,11,1,891.4327621459961,891.4318084716797,946,1
173,quadbright,15.0,11,1,583.8820934295654,583.8809013366699,1053,1
174,quadbright,16.0,20,1,395.35021781921387,395.34807205200195,1157,1
175,quadbright,17.0,17,0,494.4939613342285,494.4911003112793,1349,1
176,quadbright,18.0,11,1,724.0169048309326,724.0149974822998,1161,1
177,quadbright,19.0,11,0,594.0268039703369,594.0229892730713,1495,1
178,quadbright,20.0,11,1,591.8488502502441,591.8457508087158,858,1
179,quadbright,21.0,11,1,593.613862991333,593.609094619751,1097,1
180,quadbright,22.0,11,0,595.4198837280273,595.4189300537109,828,1
181,quadbright,23.0,11,0,736.8168830871582,736.8118762969971,1042,1
182,quadbright,24.0,11,1,625.9651184082031,625.9641647338867,1086,1
183,quadbright,25.0,11,1,624.9790191650391,624.9768733978271,1257,1
184,quadbright,26.0,11,1,791.398286819458,791.3961410522461,1025,1
185,quadbright,27.0,18,1,494.55881118774414,494.55785751342773,1301,1
186,quadbright,28.0,11,0,593.430757522583,593.4298038482666,812,1
187,quadbright,29.0,20,1,493.6521053314209,493.64686012268066,1126,1
188,quadbright,30.0,18,1,594.4740772247314,594.4719314575195,1331,1
189,quadbright,5.0,14,1,200.57129859924316,596.177339553833,1270,1
190,quadbright,6.0,20,1,395.5976963043213,395.596981048584,937,1
191,quadbright,7.0,11,1,99.2739200592041,494.8558807373047,938,1
192,quadbright,8.0,11,1,100.27194023132324,694.0078735351562,1016,1
193,quadbright,9.0,11,1,494.0187931060791,494.0171241760254,1254,1
194,quadbright,10.0,11,1,495.1009750366211,495.0888156890869,816,1
195,quadbright,11.0,11,1,586.7578983306885,586.756706237793,1080,1
196,quadbright,12.0,11,1,596.5218544006348,596.5189933776855,1215,1
197,quadbright,13.0,11,1,134.796142578125,536.3819599151611,1349,1
198,quadbright,14.0,11,1,890.251874923706,890.2437686920166,1420,1
199,quadbright,15.0,11,1,425.4567623138428,425.45294761657715,1188,1
200,quadbright,16.0,20,1,1014.4567489624023,1014.4557952880859,1296,1
201,quadbright,17.0,20,1,683.1250190734863,683.1240653991699,1270,1
202,quadbright,18.0,11,1,581.7971229553223,581.7952156066895,1434,1
203,quadbright,19.0,14,1,591.8869972229004,591.8829441070557,1381,1
204,quadbright,20.0,11,1,593.3880805969238,593.3868885040283,1114,1
205,quadbright,21.0,11,0,689.5139217376709,689.4998550415039,971,0
206,quadbright,21.0,11,1,888.9181613922119,888.9150619506836,854,1
207,quadbright,22.0,14,1,494.6479797363281,494.6470260620117,942,1
208,quadbright,23.0,14,1,1323.3940601348877,1323.390245437622,1122,1
209,quadbright,24.0,11,1,713.27805519104,713.2768630981445,1067,1
210,quadbright,25.0,11,0,197.8318691253662,1395.183801651001,1439,1
211,quadbright,26.0,11,0,595.6981182098389,595.6971645355225,920,0
212,quadbright,26.0,11,0,1284.5180034637451,1284.512996673584,801,1
213,quadbright,27.0,17,1,535.444974899292,535.4440212249756,978,1
214,quadbright,28.0,14,1,716.5918350219727,716.5908813476562,1416,1
215,quadbright,29.0,20,1,691.6911602020264,691.6892528533936,1140,1
216,quadbright,30.0,18,1,597.3539352416992,597.3517894744873,867,1
217,quadbright,5.0,14,1,198.81176948547363,601.578950881958,1012,1
218,quadbright,6.0,18,1,198.74882698059082,493.0999279022217,1211,0
219,quadbright,6.0,18,1,296.3130474090576,582.0417404174805,1439,1
220,quadbright,7.0,8,1,199.0499496459961,593.7368869781494,1268,1
221,quadbright,8.0,8,1,131.7451000213623,625.5202293395996,1142,1
222,quadbright,9.0,8,1,593.0259227752686,593.0202007293701,1379,1
223,quadbright,10.0,8,1,525.8228778839111,525.8181095123291,1443,1
224,quadbright,11.0,8,1,822.7689266204834,822.7670192718506,1235,1
225,quadbright,12.0,8,1,490.97394943237305,490.97180366516113,1445,1
226,quadbright,13.0,8,1,701.9879817962646,701.9848823547363,1369,1
227,quadbright,14.0,8,0,722.5301265716553,722.527265548706,827,1
228,quadbright,15.0,8,0,625.0350475311279,625.0288486480713,1452,1
229,quadbright,16.0,18,1,625.3156661987305,625.3139972686768,1444,1
230,quadbright,17.0,20,1,404.1750431060791,404.1719436645508,1057,1
231,quadbright,18.0,8,0,692.4569606781006,692.4560070037842,890,1
232,quadbright,19.0,14,1,596.6668128967285,596.6637134552002,990,1
233,quadbright,20.0,8,1,187.3769760131836,1276.292085647583,1457,1
234,quadbright,21.0,8,1,933.8588714599609,933.8572025299072,1447,1
235,quadbright,22.0,14,0,630.5012702941895,630.4991245269775,1190,1
236,quadbright,23.0,14,1,627.791166305542,627.7902126312256,1428,1
237,quadbright,24.0,8,1,483.00886154174805,483.00790786743164,872,1
238,quadbright,25.0,14,1,530.1458835601807,530.1439762115479,1140,1
239,quadbright,26.0,14,1,583.9409828186035,583.9400291442871,1240,1
240,quadbright,27.0,17,1,691.0929679870605,691.0820007324219,1059,1
241,quadbright,28.0,14,1,497.2710609436035,497.2701072692871,1376,1
242,quadbright,29.0,18,1,791.2218570709229,791.2201881408691,1379,1
243,quadbright,30.0,17,0,790.1456356048584,790.144681930542,1427,1
244,quadbright,5.0,12,1,99.17473793029785,889.1477584838867,1436,1
245,quadbright,6.0,18,1,207.9010009765625,639.2881870269775,1084,1
246,quadbright,7.0,8,1,98.0682373046875,587.8078937530518,1159,1
247,quadbright,8.0,8,1,197.65186309814453,604.2540073394775,1026,1
248,quadbright,9.0,8,1,95.39198875427246,395.0972557067871,1488,1
249,quadbright,10.0,8,1,395.3218460083008,395.31707763671875,1087,1
250,quadbright,11.0,8,1,496.6421127319336,496.6390132904053,951,1
251,quadbright,12.0,8,1,482.96594619750977,482.96499252319336,894,1
252,quadbright,13.0,8,1,493.2241439819336,493.22009086608887,1050,1
253,quadbright,14.0,11,0,992.480993270874,992.4788475036621,1467,1
254,quadbright,15.0,11,1,703.3720016479492,703.3698558807373,1439,1
255,quadbright,16.0,18,1,495.2359199523926,495.23186683654785,1282,1
256,quadbright,17.0,18,1,498.9290237426758,498.92497062683105,996,1
257,quadbright,18.0,11,1,505.11908531188965,505.1147937774658,1310,1
258,quadbright,19.0,12,0,493.40009689331055,493.3969974517822,1407,1
259,quadbright,20.0,8,1,892.5890922546387,892.5859928131104,866,1
260,quadbright,21.0,8,0,791.496992111206,791.4950847625732,1415,1
261,quadbright,22.0,15,1,502.8507709503174,502.84790992736816,1351,1
262,quadbright,23.0,12,1,493.96824836730957,493.96729469299316,966,1
263,quadbright,24.0,8,0,592.5240516662598,592.5180912017822,1323,1
264,quadbright,25.0,14,1,593.3578014373779,593.3566093444824,1487,1
265,quadbright,26.0,14,1,494.8911666870117,494.8880672454834,1296,1
266,quadbright,27.0,15,1,803.0493259429932,803.0471801757812,1432,1
267,quadbright,28.0,12,0,691.6818618774414,691.6790008544922,1060,1
268,quadbright,29.0,18,1,591.9959545135498,591.9897556304932,844,1
269,quadbright,30.0,18,1,692.3959255218506,692.3928260803223,1129,1
270,quadbright,5.0,12,1,98.83761405944824,395.7357406616211,1267,1
271,quadbright,6.0,17,1,99.60412979125977,492.5498962402344,1291,1
272,quadbright,7.0,5,1,693.3290958404541,693.3259963989258,1236,1
273,quadbright,8.0,5,1,198.3327865600586,905.3800106048584,1365,1
274,quadbright,9.0,5,1,98.56796264648438,492.99001693725586,1312,1
275,quadbright,10.0,5,1,802.0610809326172,802.0579814910889,1305,1
276,quadbright,11.0,5,1,438.9350414276123,438.92812728881836,1500,1
277,quadbright,12.0,5,0,98.7091064453125,527.7559757232666,1132,0
278,quadbright,12.0,5,0,431.5612316131592,431.5602779388428,1411,1
279,quadbright,13.0,5,1,822.2050666809082,822.1979141235352,1019,1
280,quadbright,14.0,14,1,701.9670009613037,701.962947845459,1264,1
281,quadbright,15.0,11,1,729.1989326477051,729.1958332061768,1043,1
282,quadbright,16.0,17,1,696.3622570037842,696.3601112365723,1388,1
283,quadbright,17.0,18,1,496.45400047302246,496.45090103149414,1389,1
284,quadbright,18.0,11,1,703.6499977111816,703.6480903625488,1435,1
285,quadbright,19.0,14,1,625.1189708709717,625.114917755127,866,1
286,quadbright,20.0,5,0,624.7327327728271,624.7248649597168,869,1
287,quadbright,21.0,11,0,593.6489105224609,593.646764755249,1123,1
288,quadbright,22.0,15,1,496.56224250793457,496.55604362487793,1120,1
289,quadbright,23.0,12,1,692.9271221160889,692.9261684417725,1485,1
290,quadbright,24.0,11,0,703.3388614654541,703.3357620239258,1084,1
291,quadbright,25.0,12,1,782.4790477752686,782.4780941009521,1024,1
292,quadbright,26.0,12,0,889.3918991088867,889.3890380859375,979,1
293,quadbright,27.0,15,0,719.1948890686035,719.1929817199707,1065,1
294,quadbright,28.0,14,1,703.9508819580078,703.948974609375,1153,1
295,quadbright,29.0,17,1,494.7929382324219,494.79198455810547,1279,1
296,quadbright,30.0,18,1,494.00782585144043,494.0066337585449,1145,1
297,quadbright,5.0,11,1,526.6120433807373,526.608943939209,1200,1
298,quadbright,6.0,17,1,428.2059669494629,428.2050132751465,1333,1
299,quadbright,7.0,5,1,293.0738925933838,625.7178783416748,911,1
300,quadbright,8.0,5,1,795.7689762115479,795.7658767700195,1139,1
301,quadbright,9.0,5,1,100.53396224975586,635.0069046020508,1301,1
302,quadbright,10.0,5,0,828.5787105560303,828.5777568817139,1007,1
303,quadbright,11.0,5,1,496.46902084350586,496.4632987976074,821,1
304,quadbright,12.0,8,1,494.83704566955566,494.83513832092285,1089,1
305,quadbright,13.0,5,1,691.7648315429688,691.7598247528076,1308,1
306,quadbright,14.0,14,1,791.2681102752686,791.2640571594238,1462,1
307,quadbright,15.0,9,1,526.7410278320312,526.7379283905029,963,1
308,quadbright,16.0,17,1,627.3021697998047,627.3012161254883,1218,1
309,quadbright,17.0,17,1,594.4669246673584,594.465970993042,1111,1
310,quadbright,18.0,9,0,890.1309967041016,890.1278972625732,1068,1
311,quadbright,19.0,14,1,801.9709587097168,801.9678592681885,1129,1
312,quadbright,20.0,8,1,494.8849678039551,494.8849678039551,1088,1
313,quadbright,21.0,14,1,493.8690662384033,493.8619136810303,828,1
314,quadbright,22.0,14,0,681.7407608032227,681.7400455474854,1173,1
315,quadbright,23.0,11,1,792.8619384765625,792.8609848022461,1346,1
316,quadbright,24.0,14,1,493.9768314361572,493.9720630645752,1071,1
317,quadbright,25.0,12,1,591.1169052124023,591.1149978637695,1431,1
318,quadbright,26.0,14,1,594.0699577331543,594.0690040588379,874,1
319,quadbright,27.0,17,1,692.7139759063721,692.7108764648438,849,1
320,quadbright,28.0,14,1,493.96300315856934,493.96300315856934,1002,1
321,quadbright,29.0,17,0,491.1322593688965,491.12415313720703,1318,1
322,quadbright,30.0,17,1,402.71615982055664,402.7121067047119,852,1
323,quadbright,5.0,11,1,196.21896743774414,491.52398109436035,1198,1
324,quadbright,6.0,15,1,100.32796859741211,503.63707542419434,1325,1
325,quadbright,7.0,2,0,98.86908531188965,889.5938396453857,1359,1
326,quadbright,8.0,2,1,96.04787826538086,789.3252372741699,979,1
327,quadbright,9.0,2,1,100.2810001373291,582.9739570617676,971,1
328,quadbright,10.0,8,0,100.82292556762695,797.0860004425049,1157,1
329,quadbright,11.0,2,1,590.1830196380615,590.1768207550049,1174,1
330,quadbright,12.0,8,0,496.5331554412842,496.5319633483887,1461,1
331,quadbright,13.0,2,1,688.6551380157471,688.6529922485352,1417,1
332,quadbright,14.0,12,1,593.576192855835,593.56689453125,1253,1
333,quadbright,15.0,9,1,691.9248104095459,691.9221878051758,1470,1
334,quadbright,16.0,15,1,792.189359664917,792.1881675720215,1033,1
335,quadbright,17.0,17,1,491.11008644104004,491.1060333251953,1162,1
336,quadbright,18.0,11,0,592.6811695098877,592.6811695098877,1376,1
337,quadbright,19.0,13,0,880.0640106201172,880.0630569458008,846,1
338,quadbright,20.0,8,1,790.2920246124268,790.290117263794,899,1
339,quadbright,21.0,14,1,594.1901206970215,594.1891670227051,904,1
340,quadbright,22.0,15,1,584.3038558959961,584.3026638031006,807,1
341,quadbright,23.0,11,0,395.7068920135498,395.7056999206543,1463,1
342,quadbright,24.0,14,0,494.61817741394043,494.617223739624,1457,1
343,quadbright,25.0,11,0,781.2068462371826,781.2049388885498,803,1
344,quadbright,26.0,14,1,394.0589427947998,394.05274391174316,1495,1
345,quadbright,27.0,17,1,688.8670921325684,688.8659000396729,968,1
346,quadbright,28.0,13,0,395.2600955963135,395.25508880615234,1477,1
347,quadbright,29.0,18,0,494.8139190673828,494.8129653930664,1234,1
348,quadbright,30.0,17,1,493.3919906616211,493.3910369873047,1242,1
349,quadbright,5.0,9,1,190.2792453765869,585.6692790985107,1031,1
350,quadbright,6.0,15,1,98.2670783996582,426.9421100616455,849,1
351,quadbright,7.0,5,1,703.667163848877,703.665018081665,1087,1
352,quadbright,8.0,2,1,197.33405113220215,692.2829151153564,1145,1
353,quadbright,9.0,2,0,197.80516624450684,627.4631023406982,1409,1
354,quadbright,10.0,11,1,99.37810897827148,495.88918685913086,1463,1
355,quadbright,11.0,2,1,889.6770477294922,889.6739482879639,942,1
356,quadbright,12.0,9,1,495.2681064605713,495.26500701904297,1363,1
357,quadbright,13.0,2,1,691.7169094085693,691.7159557342529,1084,1
358,quadbright,14.0,12,1,493.6649799346924,493.66092681884766,861,1
359,quadbright,15.0,8,1,494.3521022796631,494.34685707092285,1431,1
360,quadbright,16.0,15,1,692.2199726104736,692.2190189361572,1023,1
361,quadbright,17.0,15,1,789.3600463867188,789.3550395965576,859,1
362,quadbright,18.0,12,1,696.2742805480957,696.2733268737793,1253,1
363,quadbright,19.0,14,1,627.086877822876,627.0809173583984,1086,1
364,quadbright,20.0,6,1,617.3691749572754,617.3679828643799,1044,1
365,quadbright,21.0,12,0,735.584020614624,735.579252243042,802,1
366,quadbright,22.0,15,1,1023.8380432128906,1023.8370895385742,1317,1
367,quadbright,23.0,12,0,725.2962589263916,725.2950668334961,1358,1
368,quadbright,24.0,15,0,525.9149074554443,525.9127616882324,1073,1
369,quadbright,25.0,12,1,723.7679958343506,723.7660884857178,824,1
370,quadbright,26.0,13,1,492.29979515075684,492.2969341278076,870,1
371,quadbright,27.0,16,1,495.00417709350586,495.00322341918945,1445,1
372,quadbright,28.0,14,0,878.2429695129395,878.2408237457275,903,1
373,quadbright,29.0,20,1,491.5599822998047,491.55616760253906,1058,1
374,quadbright,30.0,16,1,603.2450199127197,603.2419204711914,1454,1
375,quadbright,5.0,9,1,99.47013854980469,504.5971870422363,1447,1
376,quadbright,6.0,14,1,198.39882850646973,603.6717891693115,1233,1
377,quadbright,7.0,5,1,98.9229679107666,901.3731479644775,917,1
378,quadbright,8.0,1,1,98.36912155151367,791.7749881744385,1068,1
379,quadbright,9.0,5,0,99.77197647094727,583.2929611206055,961,1
380,quadbright,10.0,11,1,100.56805610656738,531.1851501464844,1120,1
381,quadbright,11.0,1,0,725.2359390258789,725.2321243286133,1143,1
382,quadbright,12.0,9,1,691.5700435638428,691.5690898895264,1493,1
383,quadbright,13.0,1,0,493.243932723999,493.2389259338379,1244,1
384,quadbright,14.0,11,1,496.5188503265381,496.51598930358887,1096,1
385,quadbright,15.0,8,0,683.0918788909912,683.0909252166748,1139,1
386,quadbright,16.0,14,0,693.3541297912598,693.352222442627,1058,1
387,quadbright,17.0,15,0,493.90530586242676,493.9000606536865,1258,1
388,quadbright,18.0,12,1,594.3810939788818,594.3779945373535,1175,1
389,quadbright,19.0,14,0,795.5808639526367,795.5787181854248,1109,1
390,quadbright,20.0,6,1,604.3820381164551,604.3798923492432,1375,1
391,quadbright,21.0,14,1,692.486047744751,692.4839019775391,896,1
392,quadbright,22.0,14,0,912.2219085693359,912.2202396392822,1168,1
393,quadbright,23.0,14,0,396.2419033050537,396.2390422821045,1220,1
394,quadbright,24.0,17,1,824.27978515625,824.2790699005127,1368,1
395,quadbright,25.0,12,1,594.2327976226807,594.2308902740479,1387,1
396,quadbright,26.0,13,1,595.2408313751221,595.2389240264893,1366,1
397,quadbright,27.0,16,0,592.6620960235596,592.6592350006104,975,1
