trial,condition,eccentricity,magnitude,correct,srt_ms,keyboard_rt_ms,pre_change_ms,valid
1,control,5.0,20,1,164.8120880126953,2175.4660606384277,1461,1
2,control,6.0,20,1,988.7869358062744,988.7790679931641,807,1
3,control,7.0,20,1,265.3357982635498,823.828935623169,1195,1
4,control,8.0,20,1,1020.7717418670654,1020.7695960998535,1056,1
5,control,9.0,20,1,816.8718814849854,816.870927810669,846,1
6,control,10.0,20,1,659.0228080749512,659.0189933776855,1378,1
7,control,11.0,20,1,755.8057308197021,755.8019161224365,1075,1
8,control,12.0,20,1,888.8051509857178,888.8001441955566,1349,1
9,control,13.0,20,1,670.3739166259766,670.3717708587646,999,0
10,control,13.0,20,1,922.631025314331,922.6269721984863,814,1
11,control,14.0,20,1,814.4700527191162,814.4688606262207,1289,1
12,control,15.0,20,1,714.0967845916748,714.0960693359375,1482,1
13,control,16.0,20,1,648.0357646942139,648.0348110198975,1446,1
14,control,17.0,20,1,746.3130950927734,746.3130950927734,1493,1
15,control,18.0,20,1,656.9628715515137,656.9600105285645,933,1
16,control,19.0,20,1,660.7370376586914,660.7329845428467,1194,1
17,control,20.0,20,1,636.8839740753174,636.8799209594727,822,1
18,control,21.0,20,1,715.0888442993164,715.0871753692627,1182,1
19,control,22.0,20,1,823.5468864440918,823.5311508178711,1282,1
20,control,23.0,20,1,825.648307800293,825.6442546844482,977,1
21,control,24.0,20,1,1034.059762954712,1034.052848815918,989,1
22,control,25.0,20,1,650.1519680023193,650.1507759094238,834,1
23,control,26.0,20,1,911.9670391082764,911.96608543396,1469,1
24,control,27.0,20,1,990.7660484313965,990.7639026641846,1166,1
25,control,28.0,20,1,647.4239826202393,647.4230289459229,1247,1
26,control,29.0,20,1,1284.282922744751,1284.278154373169,1016,1
27,control,30.0,20,1,823.7628936767578,823.7588405609131,1460,1
28,control,5.0,20,1,714.7648334503174,714.7641181945801,1259,0
29,control,5.0,20,1,823.6179351806641,823.6148357391357,1320,1
30,control,6.0,20,1,161.9420051574707,822.404146194458,1185,1
31,control,7.0,20,1,164.57080841064453,733.5648536682129,1156,1
32,control,8.0,20,1,164.8080348968506,914.3681526184082,1385,1
33,control,9.0,20,1,1077.3608684539795,1077.359676361084,1369,1
34,control,10.0,20,1,913.5341644287109,913.5341644287109,1254,1
35,control,11.0,20,1,913.1271839141846,913.1262302398682,1154,1
36,control,12.0,20,1,911.0090732574463,911.0081195831299,1385,1
37,control,13.0,20,1,812.9119873046875,812.9110336303711,1405,1
38,control,14.0,20,1,916.9609546661377,916.9600009918213,1454,1
39,control,15.0,20,1,825.3350257873535,825.3331184387207,863,1
40,control,16.0,20,1,922.4748611450195,922.468900680542,984,1
41,control,17.0,20,1,835.1008892059326,835.0982666015625,1296,1
42,control,18.0,20,1,825.7122039794922,825.7012367248535,990,1
43,control,19.0,20,1,823.9309787750244,823.9259719848633,963,1
44,control,20.0,20,1,934.3681335449219,934.3631267547607,944,1
45,control,21.0,20,1,724.9782085418701,724.9760627746582,1278,1
46,control,22.0,20,1,1021.4169025421143,1021.4111804962158,1492,1
47,control,23.0,20,1,836.8830680847168,836.8749618530273,1294,1
48,control,24.0,20,1,725.0707149505615,725.0628471374512,994,1
49,control,25.0,20,1,912.7228260040283,912.722110748291,1230,1
50,control,26.0,20,1,812.5030994415283,812.5030994415283,1432,1
51,control,27.0,20,1,1110.1419925689697,1110.1410388946533,1359,1
52,control,28.0,20,1,825.369119644165,825.3641128540039,1121,1
53,control,29.0,20,1,1077.8090953826904,1077.808141708374,1281,1
54,control,30.0,20,1,1032.7138900756836,1032.7069759368896,949,1
55,control,5.0,17,1,97.3210334777832,1020.7071304321289,1321,1
56,control,6.0,17,1,67.64698028564453,825.5100250244141,1142,1
57,control,7.0,17,1,723.2100963592529,723.2050895690918,1312,0
58,control,7.0,17,1,363.00206184387207,723.8421440124512,985,1
59,control,8.0,17,1,833.794116973877,833.791971206665,1449,1
60,control,9.0,17,1,724.9410152435303,724.9338626861572,1296,1
61,control,10.0,17,1,736.4130020141602,736.4089488983154,840,1
62,control,11.0,17,1,890.031099319458,890.0260925292969,1466,1
63,control,12.0,17,1,1032.066822052002,1032.0649147033691,1481,1
64,control,13.0,17,1,923.6409664154053,923.6400127410889,1283,1
65,control,14.0,17,1,924.767017364502,924.7651100158691,876,1
66,control,15.0,17,1,725.5082130432129,725.506067276001,912,1
67,control,16.0,17,1,725.0738143920898,725.0699996948242,1149,1
68,control,17.0,17,1,564.5291805267334,564.528226852417,1448,1
69,control,18.0,17,1,459.8400592803955,459.8379135131836,1331,1
70,control,19.0,17,1,832.6339721679688,832.629919052124,903,1
71,control,20.0,17,1,921.212911605835,921.2098121643066,1214,1
72,control,21.0,17,1,988.5189533233643,988.5170459747314,1458,1
73,control,22.0,17,1,927.433967590332,927.4299144744873,924,1
74,control,23.0,17,1,1185.6307983398438,1185.6260299682617,1022,1
75,control,24.0,17,1,1298.2087135314941,1298.2017993927002,1151,1
76,control,25.0,17,1,649.3730545043945,649.371862411499,1469,1
77,control,26.0,17,1,1285.9320640563965,1285.9280109405518,992,1
78,control,27.0,17,1,890.2988433837891,890.2947902679443,1311,1
79,control,28.0,17,1,1011.1808776855469,1011.1799240112305,1031,1
80,control,29.0,17,0,823.1258392333984,823.1189250946045,1130,1
81,control,30.0,17,1,928.2040596008301,928.2021522521973,1361,1
82,control,5.0,17,0,202.82912254333496,1192.0630931854248,831,1
83,control,6.0,17,1,1933.980941772461,1933.9797496795654,1250,0
84,control,6.0,17,1,165.33517837524414,988.2462024688721,1309,1
85,control,7.0,17,1,931.5130710601807,931.5090179443359,1255,0
86,control,7.0,17,1,97.93400764465332,926.0668754577637,1161,1
87,control,8.0,17,1,98.59800338745117,657.6869487762451,1219,0
88,control,8.0,17,1,65.14906883239746,725.0549793243408,1468,1
89,control,9.0,17,1,1021.7363834381104,1021.7320919036865,1133,1
90,control,10.0,17,1,891.6878700256348,891.6819095611572,1254,1
91,control,11.0,17,1,757.983922958374,757.9813003540039,1085,1
92,control,12.0,17,1,911.5738868713379,911.5729331970215,1346,1
93,control,13.0,17,1,904.3631553649902,904.3610095977783,1214,1
94,control,14.0,17,1,671.4179515838623,671.4136600494385,1232,1
95,control,15.0,17,1,757.7259540557861,757.7219009399414,1182,1
96,control,16.0,17,1,659.9559783935547,659.9550247192383,1496,1
97,control,17.0,17,1,570.5959796905518,570.594072341919,949,1
98,control,18.0,17,1,921.5288162231445,921.5238094329834,869,1
99,control,19.0,17,1,923.288106918335,923.2828617095947,1324,1
100,control,20.0,17,1,1090.735912322998,1090.7328128814697,1049,1
101,control,21.0,17,1,1122.4379539489746,1122.4288940429688,1478,1
102,control,22.0,17,1,811.2130165100098,811.2120628356934,1167,1
103,control,23.0,17,1,698.7762451171875,698.7709999084473,1213,1
104,control,24.0,17,1,824.2988586425781,824.2917060852051,1096,1
105,control,25.0,17,1,691.6711330413818,691.6689872741699,1436,1
106,control,26.0,17,1,757.652997970581,757.6498985290527,1245,1
107,control,27.0,17,1,814.7749900817871,814.7740364074707,1063,1
108,control,28.0,17,1,659.4979763031006,659.491777420044,974,1
109,control,29.0,20,1,824.7971534729004,824.7959613800049,1098,1
110,control,30.0,17,1,694.1671371459961,694.1640377044678,1354,1
111,control,5.0,20,1,98.21796417236328,703.4733295440674,1289,1
112,control,6.0,14,1,130.72466850280762,659.2788696289062,949,1
113,control,7.0,14,1,164.11113739013672,627.4819374084473,1068,1
114,control,8.0,14,1,166.26286506652832,824.9969482421875,1045,1
115,control,9.0,14,1,690.4680728912354,690.464973449707,1249,1
116,control,10.0,14,1,703.387975692749,703.3851146697998,1273,1
117,control,11.0,14,1,824.652910232544,824.6488571166992,1334,1
118,control,12.0,14,1,952.7289867401123,952.7227878570557,827,1
119,control,13.0,14,1,662.6749038696289,662.6718044281006,1011,1
120,control,14.0,14,1,826.4729976654053,826.4708518981934,1405,1
121,control,15.0,14,1,659.9757671356201,659.9748134613037,1062,1
122,control,16.0,14,1,591.4239883422852,591.4208889007568,1148,1
123,control,17.0,14,1,825.3529071807861,825.3488540649414,1140,1
124,control,18.0,14,1,735.0647449493408,735.055685043335,1400,1
125,control,19.0,14,1,536.6520881652832,536.6489887237549,887,1
126,control,20.0,14,1,1000.8268356323242,1000.8246898651123,1141,1
127,control,21.0,14,1,822.8068351745605,822.8051662445068,1000,1
128,control,22.0,14,1,636.3098621368408,636.3058090209961,1421,1
129,control,23.0,14,1,760.5738639831543,760.5721950531006,1158,1
130,control,24.0,14,1,825.2658843994141,825.2658843994141,940,1
131,control,25.0,14,1,835.655927658081,835.6540203094482,974,1
132,control,26.0,14,1,826.7810344696045,826.7800807952881,905,1
133,control,27.0,14,1,758.4228515625,758.4168910980225,961,1
134,control,28.0,14,1,824.5251178741455,824.5229721069336,1105,1
135,control,29.0,20,1,922.5032329559326,922.4991798400879,809,1
136,control,30.0,14,1,891.0017013549805,891.0007476806641,1073,1
137,control,5.0,20,1,132.1849822998047,828.8049697875977,966,1
138,control,6.0,14,1,823.2409954071045,823.2388496398926,1228,1
139,control,7.0,14,1,132.41195678710938,592.810869216919,815,1
140,control,8.0,14,1,132.2498321533203,668.4086322784424,1342,1
141,control,9.0,14,1,823.045015335083,823.0397701263428,1070,1
142,control,10.0,14,1,460.3252410888672,460.31808853149414,1452,1
143,control,11.0,14,1,1178.0710220336914,1178.070068359375,966,1
144,control,12.0,14,1,824.9330520629883,824.9311447143555,1237,1
145,control,13.0,14,1,825.3588676452637,825.355052947998,1019,1
146,control,14.0,14,1,724.1811752319336,724.1711616516113,1079,1
147,control,15.0,14,1,824.9108791351318,824.9039649963379,1347,1
148,control,16.0,14,1,956.4774036407471,956.4721584320068,950,1
149,control,17.0,14,1,525.8669853210449,525.8581638336182,1250,1
150,control,18.0,14,0,1351.302146911621,1351.3002395629883,982,1
151,control,19.0,14,1,834.8469734191895,834.841251373291,967,1
152,control,20.0,14,1,734.1270446777344,734.123945236206,1003,1
153,control,21.0,14,1,825.6468772888184,825.6430625915527,1424,1
154,control,22.0,14,1,1121.1051940917969,1121.0999488830566,1218,1
155,control,23.0,14,1,821.8629360198975,821.8600749969482,1250,1
156,control,24.0,14,1,824.1641521453857,824.1519927978516,819,1
157,control,25.0,14,1,923.3322143554688,923.3269691467285,907,1
158,control,26.0,14,1,825.2930641174316,825.2909183502197,1132,1
159,control,27.0,14,1,833.9300155639648,833.9269161224365,915,1
160,control,28.0,14,1,833.7130546569824,833.7092399597168,858,1
161,control,29.0,18,1,823.8441944122314,823.8341808319092,830,1
162,control,30.0,14,1,1120.1059818267822,1120.1000213623047,1006,1
163,control,5.0,18,1,132.4021816253662,836.4429473876953,857,1
164,control,6.0,11,1,165.56787490844727,978.9791107177734,1379,1
165,control,7.0,11,1,66.75291061401367,1228.8539409637451,986,1
166,control,8.0,11,1,989.171028137207,989.1688823699951,1082,1
167,control,9.0,11,1,134.17696952819824,958.3649635314941,1216,1
168,control,10.0,11,1,835.0563049316406,835.0481986999512,1030,1
169,control,11.0,11,1,993.523120880127,993.5219287872314,1322,1
170,control,12.0,11,1,823.9498138427734,823.9479064941406,1024,1
171,control,13.0,11,1,1264.2040252685547,1264.1949653625488,882,1
172,control,14.0,11,1,835.3691101074219,835.3610038757324,967,1
173,control,15.0,11,1,665.7209396362305,665.7187938690186,1165,1
174,control,16.0,11,1,956.7821025848389,956.7739963531494,1166,1
175,control,17.0,11,0,933.7573051452637,933.751106262207,852,1
176,control,18.0,17,1,635.2519989013672,635.2488994598389,1351,1
177,control,19.0,11,1,968.7809944152832,968.7769412994385,1232,1
178,control,20.0,11,1,1026.16286277771,1026.1569023132324,902,1
179,control,21.0,11,1,362.6089096069336,362.6079559326172,1208,1
180,control,22.0,11,1,889.8260593414307,889.8217678070068,887,1
181,control,23.0,11,1,831.9520950317383,831.946849822998,1256,1
182,control,24.0,11,1,827.157735824585,827.1539211273193,1089,1
183,control,25.0,11,1,953.7453651428223,953.7391662597656,1032,1
184,control,26.0,11,1,1187.4001026153564,1187.3929500579834,1479,1
185,control,27.0,11,1,657.567024230957,657.5632095336914,1288,1
186,control,28.0,11,1,691.425085067749,691.417932510376,1139,1
187,control,29.0,18,1,596.7137813568115,596.7087745666504,1458,1
188,control,30.0,11,1,726.2542247772217,726.250171661377,809,1
189,control,5.0,18,1,165.26007652282715,989.173173904419,1004,1
190,control,6.0,11,1,132.0168972015381,968.3918952941895,857,1
191,control,7.0,11,1,164.57891464233398,936.039924621582,1302,1
192,control,8.0,11,1,636.0597610473633,636.0538005828857,1145,1
193,control,9.0,11,1,823.6689567565918,823.6672878265381,1256,1
194,control,10.0,11,1,693.2122707366943,693.2101249694824,1357,1
195,control,11.0,11,1,656.9459438323975,656.9440364837646,970,1
196,control,12.0,11,1,993.1058883666992,993.1008815765381,922,1
197,control,13.0,11,1,703.1919956207275,703.1898498535156,1235,1
198,control,14.0,11,0,231.95385932922363,1781.567096710205,1069,0
199,control,14.0,11,1,823.0702877044678,823.0652809143066,1229,1
200,control,15.0,11,1,527.1992683410645,527.1971225738525,1356,1
201,control,16.0,11,1,592.6361083984375,592.6339626312256,972,1
202,control,17.0,14,1,735.8691692352295,735.8629703521729,1011,1
203,control,18.0,17,1,726.6659736633301,726.6640663146973,978,1
204,control,19.0,11,1,824.2690563201904,824.2630958557129,975,1
205,control,20.0,11,1,889.9807929992676,889.9788856506348,985,0
206,control,20.0,11,1,922.9199886322021,922.9152202606201,1193,1
207,control,21.0,11,1,823.1329917907715,823.1251239776611,876,1
208,control,22.0,11,1,892.6949501037598,892.690896987915,1395,1
209,control,23.0,11,1,592.8847789764404,592.879056930542,1095,0
210,control,23.0,11,1,890.5911445617676,890.5880451202393,899,1
211,control,24.0,11,1,756.6747665405273,756.6721439361572,962,1
212,control,25.0,11,1,822.376012802124,822.3650455474854,1392,1
213,control,26.0,11,1,824.4969844818115,824.4941234588623,1362,1
214,control,27.0,11,1,823.5259056091309,823.5220909118652,1185,1
215,control,28.0,11,1,824.74684715271,824.7427940368652,1158,1
216,control,29.0,17,1,812.7868175506592,812.7858638763428,1423,1
217,control,30.0,11,1,1176.1631965637207,1176.1610507965088,872,1
218,control,5.0,17,1,100.61192512512207,814.5620822906494,1473,1
219,control,6.0,8,1,66.81299209594727,725.6510257720947,1165,1
220,control,7.0,8,1,98.24490547180176,934.0989589691162,862,1
221,control,8.0,8,1,199.76067543029785,828.1128406524658,1359,1
222,control,9.0,8,1,98.85907173156738,813.3339881896973,1195,1
223,control,10.0,8,1,68.62115859985352,725.6200313568115,1434,1
224,control,11.0,8,1,824.3989944458008,824.3968486785889,1241,1
225,control,12.0,8,1,625.9109973907471,625.9059906005859,818,1
226,control,13.0,8,1,825.0360488891602,825.0317573547363,1274,1
227,control,14.0,8,1,724.9510288238525,724.9391078948975,901,1
228,control,15.0,8,1,725.9359359741211,725.9337902069092,1272,1
229,control,16.0,8,1,824.3637084960938,824.36203956604,1278,1
230,control,17.0,14,1,198.50897789001465,925.5819320678711,868,1
231,control,18.0,15,1,1120.8610534667969,1120.8550930023193,1499,1
232,control,19.0,8,0,824.2168426513672,824.2130279541016,950,1
233,control,20.0,8,1,1088.273286819458,1088.2670879364014,1402,1
234,control,21.0,8,1,822.4220275878906,822.4167823791504,1235,0
235,control,21.0,8,0,768.5678005218506,768.5658931732178,1002,1
236,control,22.0,8,1,1022.7961540222168,1022.7940082550049,1284,0
237,control,22.0,8,0,923.5649108886719,923.5579967498779,1171,1
238,control,23.0,8,1,1021.0568904876709,1021.0549831390381,801,0
239,control,23.0,8,1,822.8092193603516,822.8039741516113,1341,0
240,control,23.0,8,1,989.8850917816162,989.8819923400879,859,1
241,control,24.0,8,1,1119.7068691253662,1119.701623916626,1229,1
242,control,25.0,8,1,1132.159948348999,1132.1489810943604,1469,1
243,control,26.0,8,1,914.7348403930664,914.7329330444336,885,1
244,control,27.0,8,1,717.8809642791748,717.8800106048584,1438,1
245,control,28.0,8,1,625.8530616760254,625.8499622344971,1181,1
246,control,29.0,17,1,724.4338989257812,724.4300842285156,1039,1
247,control,30.0,8,0,823.3747482299805,823.3687877655029,987,1
248,control,5.0,17,1,98.95586967468262,836.2207412719727,1357,1
249,control,6.0,8,1,197.50714302062988,659.1508388519287,1049,1
250,control,7.0,8,1,197.2677707672119,835.2336883544922,848,1
251,control,8.0,8,1,625.6129741668701,625.6082057952881,895,1
252,control,9.0,8,1,714.8070335388184,714.8058414459229,887,1
253,control,10.0,8,1,197.37505912780762,835.4692459106445,1387,1
254,control,11.0,8,1,814.5480155944824,814.5473003387451,1363,1
255,control,12.0,8,1,834.7020149230957,834.6998691558838,824,1
256,control,13.0,8,1,824.836015701294,824.8350620269775,1037,1
257,control,14.0,8,1,922.839879989624,922.8339195251465,1429,1
258,control,15.0,8,1,1087.1260166168213,1087.122917175293,1184,1
259,control,16.0,8,1,920.4971790313721,920.4962253570557,949,0
260,control,16.0,8,1,825.8199691772461,825.8152008056641,1216,1
261,control,17.0,12,1,558.5811138153076,558.5761070251465,1109,1
262,control,18.0,15,0,987.0047569274902,986.9959354400635,1049,1
263,control,19.0,11,1,1012.8951072692871,1012.8939151763916,1051,1
264,control,20.0,8,1,921.9250679016113,921.9200611114502,1006,0
265,control,20.0,8,1,1021.8498706817627,1021.8448638916016,854,1
266,control,21.0,11,1,922.476053237915,922.4729537963867,1305,1
267,control,22.0,11,1,724.52712059021,724.5230674743652,1447,1
268,control,23.0,8,1,1022.0401287078857,1022.036075592041,1235,1
269,control,24.0,8,0,98.64521026611328,1661.257028579712,1195,0
270,control,24.0,8,0,1286.4418029785156,1286.4398956298828,1497,1
271,control,25.0,8,0,921.7040538787842,921.6959476470947,1085,1
272,control,26.0,8,1,1186.5129470825195,1186.5079402923584,953,1
273,control,27.0,8,1,824.8541355133057,824.8512744903564,1042,1
274,control,28.0,8,0,889.9080753326416,889.904260635376,872,1
275,control,29.0,15,1,823.6849308013916,823.6799240112305,1004,1
276,control,30.0,11,1,823.4670162200928,823.4617710113525,1464,1
277,control,5.0,15,1,98.68907928466797,835.2267742156982,1022,1
278,control,6.0,5,1,104.07614707946777,833.6749076843262,966,1
279,control,7.0,5,1,725.5289554595947,725.5189418792725,1311,1
280,control,8.0,5,1,98.81186485290527,813.8649463653564,1118,1
281,control,9.0,5,1,720.9510803222656,720.9458351135254,899,1
282,control,10.0,5,1,165.30895233154297,892.0180797576904,1443,1
283,control,11.0,5,1,824.4121074676514,824.4059085845947,1234,1
284,control,12.0,5,1,659.2788696289062,659.2748165130615,969,1
285,control,13.0,5,1,726.909875869751,726.9060611724854,831,0
286,control,13.0,5,1,656.771183013916,656.7680835723877,1110,1
287,control,14.0,5,0,824.1221904754639,824.1140842437744,1186,1
288,control,15.0,5,0,715.5687808990479,715.5678272247314,876,1
289,control,16.0,5,1,1021.2831497192383,1021.2790966033936,1178,1
290,control,17.0,12,1,836.8117809295654,836.8089199066162,1253,1
291,control,18.0,17,1,757.4379444122314,757.4300765991211,1240,1
292,control,19.0,11,1,724.6360778808594,724.6310710906982,892,1
293,control,20.0,5,1,1176.4459609985352,1176.4450073242188,1052,1
294,control,21.0,11,1,1087.496042251587,1087.4860286712646,837,1
295,control,22.0,11,1,812.889814376831,812.8888607025146,1375,1
296,control,23.0,5,0,994.1329956054688,994.1298961639404,1201,1
297,control,24.0,11,0,725.959062576294,725.9550094604492,1388,1
298,control,25.0,11,1,1452.8248310089111,1452.8179168701172,1317,1
299,control,26.0,5,1,624.2117881774902,624.2079734802246,1500,1
300,control,27.0,5,0,658.5052013397217,658.5001945495605,1019,1
301,control,28.0,11,1,668.7958240509033,668.7939167022705,934,1
302,control,29.0,15,1,823.390007019043,823.3861923217773,1363,1
303,control,30.0,11,1,979.3951511383057,979.3939590454102,917,1
304,control,5.0,15,1,98.06990623474121,725.3780364990234,1087,1
305,control,6.0,5,1,98.4337329864502,659.0149402618408,924,1
306,control,7.0,5,1,165.26317596435547,736.4580631256104,971,1
307,control,8.0,5,1,132.49802589416504,725.6100177764893,1280,1
308,control,9.0,5,1,1021.3320255279541,1021.3289260864258,1140,1
309,control,10.0,5,1,297.4588871002197,1122.9078769683838,1472,1
310,control,11.0,5,1,691.1606788635254,691.1578178405762,993,1
311,control,12.0,5,1,1120.6750869750977,1120.671033859253,878,1
312,control,13.0,5,1,1012.6640796661377,1012.6631259918213,1477,1
313,control,14.0,8,1,890.5270099639893,890.5239105224609,1061,1
314,control,15.0,8,1,692.2581195831299,692.2459602355957,1453,1
315,control,16.0,5,1,685.0013732910156,685.0001811981201,1459,1
316,control,17.0,11,1,625.0388622283936,625.0298023223877,1214,0
317,control,17.0,11,1,527.1708965301514,527.1708965301514,1137,1
318,control,18.0,17,1,825.1221179962158,825.120210647583,1026,1
319,control,19.0,9,1,955.4381370544434,955.435037612915,1054,1
320,control,20.0,5,1,813.7941360473633,813.7929439544678,835,1
321,control,21.0,9,0,1022.9439735412598,1022.9380130767822,1120,1
322,control,22.0,9,1,1219.1500663757324,1219.1450595855713,1461,1
323,control,23.0,8,1,925.8320331573486,925.8313179016113,1106,1
324,control,24.0,14,1,1284.93332862854,1284.9290370941162,1274,1
325,control,25.0,11,1,1120.4662322998047,1120.4590797424316,1105,1
326,control,26.0,5,1,824.6448040008545,824.6431350708008,815,1
327,control,27.0,8,1,760.9038352966309,760.9007358551025,1333,1
328,control,28.0,11,1,824.8951435089111,824.8932361602783,1015,1
329,control,29.0,14,1,944.6699619293213,944.6690082550049,1379,1
330,control,30.0,9,1,658.8418483734131,658.8330268859863,983,1
331,control,5.0,14,1,164.40916061401367,702.5589942932129,1353,1
332,control,6.0,2,0,65.44208526611328,813.0471706390381,1030,1
333,control,7.0,2,0,66.31994247436523,698.0381011962891,1483,1
334,control,8.0,2,1,67.05999374389648,582.535982131958,1407,1
335,control,9.0,2,1,595.134973526001,595.1328277587891,1170,1
336,control,10.0,2,1,822.2808837890625,822.2758769989014,1275,1
337,control,11.0,2,1,893.0819034576416,893.0778503417969,1126,1
338,control,12.0,2,1,691.2801265716553,691.2782192230225,949,1
339,control,13.0,2,1,615.5819892883301,615.5800819396973,914,1
340,control,14.0,8,1,900.6631374359131,900.6552696228027,1202,1
341,control,15.0,8,1,691.2801265716553,691.277265548706,949,1
342,control,16.0,2,1,680.8781623840332,680.8772087097168,1093,1
343,control,17.0,11,1,197.5107192993164,889.8117542266846,1082,0
344,control,17.0,11,1,692.3477649688721,692.3458576202393,1045,1
345,control,18.0,16,0,879.6961307525635,879.6951770782471,834,1
346,control,19.0,9,1,1079.258918762207,1079.2577266693115,1386,1
347,control,20.0,2,1,989.5696640014648,989.5668029785156,1109,1
348,control,21.0,11,1,683.6452484130859,683.6433410644531,1226,1
349,control,22.0,9,1,690.9937858581543,690.9921169281006,1274,1
350,control,23.0,8,1,802.7820587158203,802.7799129486084,1299,1
351,control,24.0,14,1,922.2309589385986,922.2240447998047,1126,1
352,control,25.0,9,1,626.1849403381348,626.1820793151855,1151,1
353,control,26.0,2,0,989.5961284637451,989.5920753479004,1266,1
354,control,27.0,8,1,688.2269382476807,688.2250308990479,1103,1
355,control,28.0,9,1,812.8819465637207,812.8812313079834,1185,1
356,control,29.0,14,1,822.7009773254395,822.6959705352783,1290,0
357,control,29.0,14,1,934.3690872192383,934.3619346618652,912,1
358,control,30.0,9,0,790.5998229980469,790.597677230835,1251,1
359,control,5.0,14,1,98.93083572387695,593.5969352722168,1307,1
360,control,6.0,5,1,98.79779815673828,694.307804107666,1224,1
361,control,7.0,5,0,990.419864654541,990.4129505157471,858,1
362,control,8.0,2,0,724.3869304656982,724.3850231170654,1079,1
363,control,9.0,2,0,99.82800483703613,594.3360328674316,979,1
364,control,10.0,2,0,297.37305641174316,1087.6531600952148,1488,1
365,control,11.0,2,1,789.95680809021,789.9489402770996,1176,1
366,control,12.0,2,1,693.0351257324219,693.0270195007324,1212,1
367,control,13.0,2,0,714.5311832427979,714.5299911499023,905,1
368,control,14.0,6,1,526.2911319732666,526.2851715087891,1444,1
369,control,15.0,6,1,680.8497905731201,680.8488368988037,1156,1
370,control,16.0,2,1,791.8310165405273,791.8269634246826,980,1
371,control,17.0,9,1,693.0749416351318,693.0739879608154,1109,1
372,control,18.0,17,1,721.6987609863281,721.6949462890625,1042,1
373,control,19.0,8,0,691.1029815673828,691.0991668701172,1166,1
374,control,20.0,2,1,715.8472537994385,715.846061706543,947,1
375,control,21.0,11,1,492.97189712524414,492.9649829864502,893,0
376,control,21.0,11,1,824.4805335998535,824.469804763794,1055,1
377,control,22.0,8,0,1098.8590717315674,1098.8547801971436,1459,1
378,control,23.0,6,1,696.4190006256104,696.4170932769775,1338,1
379,control,24.0,12,1,1020.665168762207,1020.658016204834,800,1
380,control,25.0,9,1,791.7330265045166,791.7261123657227,1304,1
381,control,26.0,5,1,779.9029350280762,779.9010276794434,1130,1
382,control,27.0,6,0,823.4729766845703,823.4710693359375,1283,1
383,control,28.0,9,1,792.0541763305664,792.0520305633545,1229,1
384,control,29.0,12,1,685.1010322570801,685.0991249084473,1317,1
385,control,30.0,11,1,580.6348323822021,580.6341171264648,1447,1
386,control,5.0,12,1,98.8759994506836,789.5739078521729,1162,1
387,control,6.0,5,1,101.71818733215332,901.947021484375,1495,1
388,control,7.0,8,1,98.21701049804688,790.9419536590576,1031,1
389,control,8.0,5,1,87.45908737182617,780.2619934082031,1460,1
390,control,9.0,5,1,102.24485397338867,688.5409355163574,1447,1
391,control,10.0,5,0,879.4939517974854,879.4927597045898,1375,1
392,control,11.0,1,1,791.2032604217529,791.1989688873291,823,1
393,control,12.0,1,0,627.1059513092041,627.0971298217773,1213,1
394,control,13.0,5,0,297.7321147918701,988.6751174926758,887,0
395,control,13.0,5,1,702.6560306549072,702.6500701904297,1173,1
396,control,14.0,6,1,690.5961036682129,690.5920505523682,1213,1
397,control,15.0,6,1,97.5790023803711,890.4111385345459,1442,0
398,control,15.0,6,1,822.6768970489502,822.6737976074219,1398,1
399,control,16.0,1,0,714.195966720581,714.1950130462646,1015,1
400,control,17.0,9,1,582.7739238739014,582.772970199585,1352,1
1,quadbright,5.0,20,1,1386.390209197998,1386.3871097564697,1110,1
2,quadbright,6.0,20,1,99.81203079223633,1285.8548164367676,844,1
3,quadbright,7.0,20,1,66.9560432434082,835.8659744262695,1471,1
4,quadbright,8.0,20,1,99.27201271057129,1089.1168117523193,825,1
5,quadbright,9.0,20,1,67.5210952758789,881.8278312683105,1420,1
6,quadbright,10.0,20,1,823.9138126373291,823.908805847168,1439,1
7,quadbright,11.0,20,1,625.8947849273682,625.8888244628906,1093,1
8,quadbright,12.0,20,1,825.009822845459,825.0079154968262,983,1
9,quadbright,13.0,20,1,658.2930088043213,658.2891941070557,969,1
10,quadbright,14.0,20,1,761.9497776031494,761.9478702545166,1407,1
11,quadbright,15.0,20,1,725.4629135131836,725.4600524902344,1192,1
12,quadbright,16.0,20,1,824.9001502990723,824.8991966247559,949,1
13,quadbright,17.0,20,1,725.8119583129883,725.80885887146,866,1
14,quadbright,18.0,20,1,1396.6898918151855,1396.6870307922363,1215,1
15,quadbright,19.0,20,1,823.1649398803711,823.1589794158936,1370,1
16,quadbright,20.0,20,1,659.2018604278564,659.1978073120117,808,1
17,quadbright,21.0,20,1,1276.1080265045166,1276.1061191558838,1385,1
18,quadbright,22.0,20,1,813.1520748138428,813.1508827209473,1101,1
19,quadbright,23.0,20,1,811.732292175293,811.7313385009766,1170,1
20,quadbright,24.0,20,1,1010.8392238616943,1010.8380317687988,1429,1
21,quadbright,25.0,20,1,814.6512508392334,814.650297164917,1373,1
22,quadbright,26.0,20,1,657.9368114471436,657.9339504241943,842,0
23,quadbright,26.0,20,1,912.7490520477295,912.747859954834,1437,1
24,quadbright,27.0,20,1,2172.595977783203,2172.592878341675,1487,1
25,quadbright,28.0,20,1,1387.6349925994873,1387.631893157959,845,1
26,quadbright,29.0,20,1,1142.9362297058105,1142.9340839385986,1283,1
27,quadbright,30.0,20,1,1012.1059417724609,1012.1049880981445,905,1
28,quadbright,5.0,20,1,102.24795341491699,828.5248279571533,1353,1
29,quadbright,6.0,20,1,100.01087188720703,757.5387954711914,1258,1
30,quadbright,7.0,20,1,937.453031539917,937.4489784240723,1120,1
31,quadbright,8.0,20,1,98.87003898620605,1638.7629508972168,1107,1
32,quadbright,9.0,20,1,67.8718090057373,824.8429298400879,919,1
33,quadbright,10.0,20,1,657.7889919281006,657.7861309051514,1342,0
34,quadbright,10.0,20,1,627.0318031311035,627.0289421081543,961,1
35,quadbright,11.0,20,1,924.2210388183594,924.2172241210938,1023,1
36,quadbright,12.0,20,1,923.3639240264893,923.3608245849609,1295,1
37,quadbright,13.0,20,1,1286.759376525879,1286.7519855499268,916,1
38,quadbright,14.0,20,1,911.9782447814941,911.9770526885986,1496,1
39,quadbright,15.0,20,1,1078.462839126587,1078.4611701965332,921,1
40,quadbright,16.0,20,1,813.0848407745361,813.0838871002197,1081,1
41,quadbright,17.0,20,1,557.6019287109375,557.5940608978271,1131,1
42,quadbright,18.0,20,1,813.1489753723145,813.148021697998,1463,1
43,quadbright,19.0,20,1,835.3500366210938,835.3440761566162,1228,1
44,quadbright,20.0,20,1,912.7531051635742,912.7509593963623,994,1
45,quadbright,21.0,20,1,725.7390022277832,725.7330417633057,1500,1
46,quadbright,22.0,20,1,823.7240314483643,823.7192630767822,844,1
47,quadbright,23.0,20,1,921.7038154602051,921.7031002044678,1296,1
48,quadbright,24.0,20,1,822.8716850280762,822.8669166564941,1174,1
49,quadbright,25.0,20,1,934.279203414917,934.2761039733887,1357,1
50,quadbright,26.0,20,1,921.5888977050781,921.5848445892334,1005,1
51,quadbright,27.0,20,1,812.5667572021484,812.565803527832,1421,1
52,quadbright,28.0,20,1,1176.71799659729,1176.7160892486572,1248,0
53,quadbright,28.0,20,1,878.6377906799316,878.6361217498779,1168,1
54,quadbright,29.0,20,1,1119.5425987243652,1119.5399761199951,1345,1
55,quadbright,30.0,20,1,921.9508171081543,921.9458103179932,1026,1
56,quadbright,5.0,17,1,101.48382186889648,1018.481969833374,1449,1
57,quadbright,6.0,17,1,166.6390895843506,823.4789371490479,1327,1
58,quadbright,7.0,17,1,99.72524642944336,1022.6619243621826,986,1
59,quadbright,8.0,17,1,824.9499797821045,824.9480724334717,1416,1
60,quadbright,9.0,17,1,103.11293601989746,825.0699043273926,1453,1
61,quadbright,10.0,17,1,922.7340221405029,922.7299690246582,1088,1
62,quadbright,11.0,17,1,724.1132259368896,724.1048812866211,826,1
63,quadbright,12.0,17,1,921.9682216644287,921.9663143157959,871,1
64,quadbright,13.0,17,1,823.681116104126,823.6758708953857,921,1
65,quadbright,14.0,17,1,626.0409355163574,626.0387897491455,904,1
66,quadbright,15.0,17,1,716.7420387268066,716.7410850524902,898,0
67,quadbright,15.0,17,1,1021.5897560119629,1021.5818881988525,1224,1
68,quadbright,16.0,17,1,922.2807884216309,922.2719669342041,1173,1
69,quadbright,17.0,17,1,1032.3808193206787,1032.379150390625,1452,1
70,quadbright,18.0,17,1,935.7731342315674,935.7638359069824,928,1
71,quadbright,19.0,17,1,647.4201679229736,647.4192142486572,1112,1
72,quadbright,20.0,17,1,824.4979381561279,824.4879245758057,1426,1
73,quadbright,21.0,17,1,986.8159294128418,986.8118762969971,990,1
74,quadbright,22.0,17,1,912.8170013427734,912.816047668457,1258,1
75,quadbright,23.0,17,1,559.791088104248,559.7889423370361,1251,1
76,quadbright,24.0,17,0,1487.123966217041,1487.1177673339844,1025,1
77,quadbright,25.0,17,1,824.6409893035889,824.6359825134277,944,1
78,quadbright,26.0,17,1,989.116907119751,989.1138076782227,813,1
79,quadbright,27.0,17,1,834.5227241516113,834.5158100128174,846,1
80,quadbright,28.0,17,0,1287.3530387878418,1287.351131439209,867,1
81,quadbright,29.0,17,1,1011.9438171386719,1011.9428634643555,1100,1
82,quadbright,30.0,17,1,726.2599468231201,726.2589931488037,942,1
83,quadbright,5.0,17,1,98.60587120056152,923.0988025665283,882,1
84,quadbright,6.0,17,1,98.42300415039062,812.795877456665,1028,1
85,quadbright,7.0,17,1,68.89605522155762,628.2520294189453,1003,1
86,quadbright,8.0,17,1,934.1340065002441,934.1261386871338,1471,1
87,quadbright,9.0,17,1,1021.6450691223145,1021.6429233551025,867,1
88,quadbright,10.0,17,1,651.5321731567383,651.5309810638428,1238,1
89,quadbright,11.0,17,1,830.2531242370605,830.2509784698486,911,1
90,quadbright,12.0,17,1,669.1787242889404,669.1677570343018,1222,1
91,quadbright,13.0,17,1,724.0428924560547,724.03883934021,1247,1
92,quadbright,14.0,17,1,1385.5409622192383,1385.5338096618652,1219,1
93,quadbright,15.0,17,1,1184.9873065948486,1184.9851608276367,919,1
94,quadbright,16.0,17,1,1095.6850051879883,1095.6790447235107,1497,1
95,quadbright,17.0,17,1,823.591947555542,823.5840797424316,1075,1
96,quadbright,18.0,17,1,722.6982116699219,722.6972579956055,815,1
97,quadbright,19.0,17,1,1011.3160610198975,1011.314868927002,945,1
98,quadbright,20.0,17,1,639.0171051025391,639.0101909637451,1320,1
99,quadbright,21.0,17,1,667.5090789794922,667.506217956543,1108,1
100,quadbright,22.0,17,1,689.4662380218506,689.4640922546387,1427,1
101,quadbright,23.0,17,1,527.1701812744141,527.1642208099365,1010,1
102,quadbright,24.0,20,1,724.1756916046143,724.1730690002441,830,1
103,quadbright,25.0,17,1,825.2489566802979,825.247049331665,1480,1
104,quadbright,26.0,17,1,662.9500389099121,662.9490852355957,901,1
105,quadbright,27.0,17,1,884.8628997802734,884.8621845245361,1137,1
106,quadbright,28.0,20,1,934.5018863677979,934.4971179962158,1211,1
107,quadbright,29.0,17,1,822.6358890533447,822.6339817047119,1217,1
108,quadbright,30.0,17,1,657.3340892791748,657.329797744751,1143,1
109,quadbright,5.0,14,1,65.28186798095703,822.2150802612305,1326,1
110,quadbright,6.0,14,1,65.73295593261719,837.9552364349365,1082,1
111,quadbright,7.0,14,1,134.1550350189209,968.5070514678955,1337,1
112,quadbright,8.0,14,1,636.6672515869141,636.6631984710693,1389,1
113,quadbright,9.0,14,1,515.4340267181396,515.4330730438232,847,1
114,quadbright,10.0,14,1,898.9777565002441,898.9708423614502,1068,1
115,quadbright,11.0,14,1,703.3121585845947,703.3042907714844,1150,1
116,quadbright,12.0,14,1,690.6001567840576,690.5930042266846,1222,1
117,quadbright,13.0,14,1,539.6909713745117,539.6881103515625,983,1
118,quadbright,14.0,14,1,821.2559223175049,821.2540149688721,1038,1
119,quadbright,15.0,14,1,594.2189693450928,594.2180156707764,804,1
120,quadbright,16.0,14,1,815.1509761810303,815.1500225067139,989,1
121,quadbright,17.0,14,1,835.0472450256348,835.0400924682617,914,1
122,quadbright,18.0,14,1,662.8177165985107,662.8148555755615,1331,1
123,quadbright,19.0,14,1,811.4261627197266,811.4252090454102,1447,1
124,quadbright,20.0,14,1,593.9111709594727,593.9052104949951,1021,1
125,quadbright,21.0,14,1,725.5730628967285,725.5580425262451,1329,1
126,quadbright,22.0,14,1,810.7819557189941,810.7807636260986,1237,1
127,quadbright,23.0,14,1,890.1410102844238,890.1400566101074,926,1
128,quadbright,24.0,20,1,692.6310062408447,692.6300525665283,1065,1
129,quadbright,25.0,14,1,825.855016708374,825.8521556854248,1153,1
130,quadbright,26.0,14,1,815.8457279205322,815.8438205718994,1467,1
131,quadbright,27.0,14,1,1023.8981246948242,1023.8902568817139,1091,1
132,quadbright,28.0,20,1,626.1110305786133,626.1091232299805,1290,1
133,quadbright,29.0,14,1,757.7838897705078,757.7760219573975,1287,1
134,quadbright,30.0,14,1,823.1828212738037,823.1770992279053,1277,1
135,quadbright,5.0,14,1,66.62607192993164,759.1197490692139,1469,1
136,quadbright,6.0,14,1,131.64591789245605,658.9400768280029,801,1
137,quadbright,7.0,14,1,833.367109298706,833.3621025085449,1310,1
138,quadbright,8.0,14,1,768.4919834136963,768.488883972168,896,1
139,quadbright,9.0,14,1,66.66707992553711,517.3580646514893,828,1
140,quadbright,10.0,14,1,658.9829921722412,658.9808464050293,1338,1
141,quadbright,11.0,14,1,822.216272354126,822.2131729125977,1345,1
142,quadbright,12.0,14,1,813.6398792266846,813.6389255523682,1386,1
143,quadbright,13.0,14,1,725.8892059326172,725.8849143981934,1410,1
144,quadbright,14.0,14,1,768.2409286499023,768.2340145111084,875,1
145,quadbright,15.0,14,1,835.3850841522217,835.3819847106934,1488,1
146,quadbright,16.0,14,1,885.6608867645264,885.6589794158936,910,1
147,quadbright,17.0,14,1,725.6851196289062,725.6808280944824,959,1
148,quadbright,18.0,14,1,831.4685821533203,831.4588069915771,1184,1
149,quadbright,19.0,14,1,700.253963470459,700.247049331665,966,1
150,quadbright,20.0,14,1,835.4189395904541,835.4129791259766,818,1
151,quadbright,21.0,14,1,823.9576816558838,823.9517211914062,893,1
152,quadbright,22.0,14,1,595.238208770752,595.2272415161133,1163,1
153,quadbright,23.0,14,1,604.7937870025635,604.7916412353516,1344,1
154,quadbright,24.0,18,1,956.8839073181152,956.8746089935303,1286,1
155,quadbright,25.0,14,0,956.8159580230713,956.8071365356445,849,1
156,quadbright,26.0,14,1,758.8322162628174,758.831262588501,1126,1
157,quadbright,27.0,14,1,825.0138759613037,825.009822845459,1241,1
158,quadbright,28.0,18,1,821.962833404541,821.9618797302246,909,1
159,quadbright,29.0,14,1,822.8192329406738,822.8170871734619,1319,1
160,quadbright,30.0,14,0,912.5819206237793,912.5807285308838,1295,1
161,quadbright,5.0,11,1,132.3850154876709,946.1731910705566,1024,1
162,quadbright,6.0,11,1,132.66372680664062,835.986852645874,992,1
163,quadbright,7.0,11,1,132.4939727783203,822.9167461395264,910,1
164,quadbright,8.0,11,1,98.46806526184082,835.439920425415,1037,1
165,quadbright,9.0,11,1,911.3850593566895,911.384105682373,1269,1
166,quadbright,10.0,11,1,694.8177814483643,694.8137283325195,1269,1
167,quadbright,11.0,11,1,988.1560802459717,988.152265548706,1101,1
168,quadbright,12.0,11,1,836.4160060882568,836.4121913909912,1155,1
169,quadbright,13.0,11,1,1155.5371284484863,1155.534267425537,1394,1
170,quadbright,14.0,11,1,901.2911319732666,901.2842178344727,1233,1
171,quadbright,15.0,11,1,691.5440559387207,691.5409564971924,1353,1
172,quadbright,16.0,11,1,989.1700744628906,989.1679286956787,1068,1
173,quadbright,17.0,11,1,724.6658802032471,724.6637344360352,925,1
174,quadbright,18.0,11,1,835.6368541717529,835.6258869171143,949,1
175,quadbright,19.0,11,1,957.3478698730469,957.334041595459,1192,1
176,quadbright,20.0,11,1,823.6029148101807,823.5950469970703,1247,1
177,quadbright,21.0,11,0,1295.302152633667,1295.2921390533447,1128,1
178,quadbright,22.0,11,1,657.8361988067627,657.8350067138672,1355,1
179,quadbright,23.0,11,0,824.5940208435059,824.5909214019775,989,1
180,quadbright,24.0,18,0,988.9428615570068,988.9380931854248,1448,1
181,quadbright,25.0,17,1,835.2887630462646,835.2839946746826,1007,1
182,quadbright,26.0,11,1,1121.1299896240234,1121.129035949707,1208,1
183,quadbright,27.0,11,0,956.2749862670898,956.2709331512451,1188,0
184,quadbright,27.0,11,1,690.7472610473633,690.7451152801514,852,1
185,quadbright,28.0,18,1,986.7980480194092,986.7932796478271,802,1
186,quadbright,29.0,11,1,921.5199947357178,921.515941619873,1182,1
187,quadbright,30.0,17,1,816.8208599090576,816.8199062347412,954,1
188,quadbright,5.0,11,1,98.15716743469238,691.4820671081543,1463,1
189,quadbright,6.0,11,1,95.49975395202637,811.6097450256348,1162,1
190,quadbright,7.0,11,1,66.75934791564941,658.8852405548096,1336,1
191,quadbright,8.0,11,1,132.68303871154785,769.0989971160889,972,1
192,quadbright,9.0,11,1,65.75298309326172,835.2310657501221,983,1
193,quadbright,10.0,11,1,824.4848251342773,824.4829177856445,960,1
194,quadbright,11.0,11,0,1121.7730045318604,1121.7670440673828,886,1
195,quadbright,12.0,11,1,737.943172454834,737.9410266876221,1031,1
196,quadbright,13.0,11,1,812.2959136962891,812.2949600219727,928,1
197,quadbright,14.0,11,1,923.11692237854,923.1138229370117,899,1
198,quadbright,15.0,11,1,822.8909969329834,822.8867053985596,1315,1
199,quadbright,16.0,11,1,758.5470676422119,758.5458755493164,1454,1
200,quadbright,17.0,11,1,693.4170722961426,693.4149265289307,1092,1
201,quadbright,18.0,11,1,824.3491649627686,824.3420124053955,1498,1
202,quadbright,19.0,11,1,826.1971473693848,826.1933326721191,880,1
203,quadbright,20.0,11,1,671.1540222167969,671.1511611938477,932,1
204,quadbright,21.0,14,1,995.7320690155029,995.7261085510254,1440,1
205,quadbright,22.0,11,1,829.8697471618652,829.8606872558594,1080,0
206,quadbright,22.0,11,1,725.2860069274902,725.283145904541,1332,1
207,quadbright,23.0,14,1,823.7209320068359,823.7180709838867,1178,1
208,quadbright,24.0,20,1,812.6420974731445,812.640905380249,1444,1
209,quadbright,25.0,17,1,900.2439975738525,900.2397060394287,1141,1
210,quadbright,26.0,11,1,922.2149848937988,922.2118854522705,1209,0
211,quadbright,26.0,11,1,989.9702072143555,989.9661540985107,1230,1
212,quadbright,27.0,11,1,1019.6719169616699,1019.6678638458252,1185,1
213,quadbright,28.0,17,1,821.5827941894531,821.5799331665039,1061,1
214,quadbright,29.0,11,1,647.2179889678955,647.2170352935791,1420,1
215,quadbright,30.0,17,0,1033.3178043365479,1033.3130359649658,945,1
216,quadbright,5.0,8,1,198.7130641937256,727.4749279022217,1459,1
217,quadbright,6.0,8,1,67.47627258300781,825.5772590637207,816,1
218,quadbright,7.0,8,1,65.11521339416504,726.4020442962646,1382,1
219,quadbright,8.0,8,1,813.1880760192871,813.1871223449707,1370,1
220,quadbright,9.0,8,0,1089.1978740692139,1089.1950130462646,990,0
221,quadbright,9.0,8,1,98.80495071411133,1033.289909362793,1070,1
222,quadbright,10.0,8,1,980.0939559936523,980.0930023193359,1417,1
223,quadbright,11.0,14,1,825.5960941314697,825.5932331085205,1184,1
224,quadbright,12.0,8,0,1177.5097846984863,1177.50883102417,1196,1
225,quadbright,13.0,8,0,1032.67502784729,1032.670021057129,1244,1
226,quadbright,14.0,8,1,815.0069713592529,815.0060176849365,927,1
227,quadbright,15.0,8,0,1010.7519626617432,1010.7510089874268,1040,1
228,quadbright,16.0,8,1,902.116060256958,902.1110534667969,873,1
229,quadbright,17.0,8,1,559.110164642334,559.1061115264893,1216,1
230,quadbright,18.0,8,0,1012.7520561218262,1012.7508640289307,895,0
231,quadbright,18.0,8,1,1087.273120880127,1087.264060974121,970,1
232,quadbright,19.0,8,1,614.6070957183838,614.6059036254883,1154,1
233,quadbright,20.0,8,1,1020.9078788757324,1020.9038257598877,923,1
234,quadbright,21.0,14,1,1275.770902633667,1275.7697105407715,1494,1
235,quadbright,22.0,8,1,722.6402759552002,722.6362228393555,947,1
236,quadbright,23.0,14,0,920.5429553985596,920.5350875854492,1152,1
237,quadbright,24.0,20,1,990.419864654541,990.4119968414307,1023,1
238,quadbright,25.0,15,1,824.1720199584961,824.1651058197021,816,1
239,quadbright,26.0,8,0,1748.2988834381104,1748.2962608337402,1170,1
240,quadbright,27.0,8,1,825.8681297302246,825.8659839630127,1015,1
241,quadbright,28.0,17,1,923.7160682678223,923.7120151519775,1243,1
242,quadbright,29.0,8,1,1020.5891132354736,1020.5860137939453,908,1
243,quadbright,30.0,18,1,932.5592517852783,932.5501918792725,1082,1
244,quadbright,5.0,8,1,193.34816932678223,1110.9869480133057,1255,1
245,quadbright,6.0,8,1,724.816083908081,724.8139381408691,1044,1
246,quadbright,7.0,8,1,265.52486419677734,891.9389247894287,936,1
247,quadbright,8.0,8,1,165.9109592437744,990.1230335235596,1148,1
248,quadbright,9.0,8,1,364.2239570617676,1021.4319229125977,1341,1
249,quadbright,10.0,8,1,1088.0687236785889,1088.0639553070068,1275,1
250,quadbright,11.0,14,1,1022.2470760345459,1022.240161895752,888,1
251,quadbright,12.0,11,1,714.6589756011963,714.6570682525635,1486,1
252,quadbright,13.0,11,1,726.2673377990723,726.2630462646484,988,1
253,quadbright,14.0,8,0,824.4881629943848,824.4850635528564,1037,1
254,quadbright,15.0,11,1,892.0578956604004,892.052173614502,1407,1
255,quadbright,16.0,8,0,1012.4762058258057,1012.4752521514893,1181,1
256,quadbright,17.0,8,0,756.8249702453613,756.8211555480957,1103,1
257,quadbright,18.0,8,1,834.2587947845459,834.2556953430176,1494,1
258,quadbright,19.0,8,0,1021.0309028625488,1021.0270881652832,1370,1
259,quadbright,20.0,8,1,725.013017654419,725.0089645385742,1063,1
260,quadbright,21.0,12,0,1013.8959884643555,1013.89479637146,842,1
261,quadbright,22.0,8,0,923.2938289642334,923.2869148254395,1037,1
262,quadbright,23.0,15,1,813.1179809570312,813.1167888641357,1098,1
263,quadbright,24.0,19,0,1188.9441013336182,1188.9350414276123,872,1
264,quadbright,25.0,15,1,902.2080898284912,902.198076248169,948,1
265,quadbright,26.0,11,1,1020.7948684692383,1020.7889080047607,802,1
266,quadbright,27.0,8,0,1011.6410255432129,1011.6400718688965,1365,1
267,quadbright,28.0,15,1,1032.0618152618408,1032.0558547973633,1232,1
268,quadbright,29.0,8,0,658.2798957824707,658.2789421081543,1264,1
269,quadbright,30.0,18,0,835.8261585235596,835.8221054077148,955,1
270,quadbright,5.0,5,1,98.51813316345215,1385.1401805877686,1328,1
271,quadbright,6.0,5,1,174.72004890441895,823.3039379119873,870,1
272,quadbright,7.0,5,1,165.7569408416748,1088.2830619812012,921,0
273,quadbright,7.0,5,1,98.0689525604248,922.6291179656982,1178,1
274,quadbright,8.0,5,1,165.3439998626709,997.8151321411133,1165,1
275,quadbright,9.0,5,1,197.64208793640137,919.5511341094971,808,1
276,quadbright,10.0,5,0,1033.390998840332,1033.3888530731201,1128,1
277,quadbright,11.0,12,1,891.8609619140625,891.8592929840088,1202,1
278,quadbright,12.0,11,0,1090.047836303711,1090.0452136993408,876,1
279,quadbright,13.0,11,1,922.3849773406982,922.3790168762207,1109,1
280,quadbright,14.0,11,0,1024.8591899871826,1024.8560905456543,865,0
281,quadbright,14.0,11,0,769.6471214294434,769.6430683135986,1198,1
282,quadbright,15.0,11,0,1472.1729755401611,1472.1708297729492,905,0
283,quadbright,15.0,11,1,825.7911205291748,825.782060623169,1174,1
284,quadbright,16.0,11,1,933.966875076294,933.9640140533447,1054,1
285,quadbright,17.0,11,1,813.258171081543,813.2569789886475,1094,1
286,quadbright,18.0,5,1,815.8547878265381,815.8538341522217,845,1
287,quadbright,19.0,11,1,560.0450038909912,560.035228729248,1182,1
288,quadbright,20.0,5,1,835.6270790100098,835.6227874755859,1136,1
289,quadbright,21.0,14,1,562.1538162231445,562.1509552001953,1290,1
290,quadbright,22.0,11,1,1912.7039909362793,1912.700891494751,1153,1
291,quadbright,23.0,15,0,923.1841564178467,923.17795753479,1354,1
292,quadbright,24.0,20,1,1008.9521408081055,1008.9511871337891,1284,1
293,quadbright,25.0,14,0,1121.180772781372,1121.1769580841064,1089,1
294,quadbright,26.0,11,1,922.2450256347656,922.2431182861328,887,0
295,quadbright,26.0,11,1,823.8699436187744,823.8580226898193,1040,0
296,quadbright,26.0,11,1,592.7770137786865,592.7729606628418,1169,1
297,quadbright,27.0,11,1,692.3677921295166,692.3668384552002,960,1
298,quadbright,28.0,15,1,922.6288795471191,922.6250648498535,1271,1
299,quadbright,29.0,11,0,1110.4099750518799,1110.4090213775635,1275,1
300,quadbright,30.0,19,1,726.9151210784912,726.9120216369629,1215,1
301,quadbright,5.0,5,1,66.30206108093262,758.4891319274902,862,1
302,quadbright,6.0,5,1,131.44993782043457,822.3707675933838,832,1
303,quadbright,7.0,5,1,67.52800941467285,814.5349025726318,1378,1
304,quadbright,8.0,5,1,164.58392143249512,823.3280181884766,1409,1
305,quadbright,9.0,5,1,582.9257965087891,582.9248428344727,835,1
306,quadbright,10.0,8,1,591.9969081878662,591.9959545135498,1262,1
307,quadbright,11.0,12,1,835.4990482330322,835.4959487915039,1354,1
308,quadbright,12.0,12,1,296.4129447937012,822.6029872894287,1443,1
309,quadbright,13.0,9,0,99.01809692382812,690.8607482910156,1470,1
310,quadbright,14.0,14,1,690.5913352966309,690.5882358551025,1222,1
311,quadbright,15.0,9,1,594.1240787506104,594.1178798675537,1292,1
312,quadbright,16.0,11,1,671.0331439971924,671.0300445556641,890,1
313,quadbright,17.0,11,1,759.9990367889404,759.9942684173584,1396,1
314,quadbright,18.0,5,0,811.5341663360596,811.5329742431641,988,1
315,quadbright,19.0,11,1,826.5838623046875,826.5829086303711,1015,1
316,quadbright,20.0,5,0,922.126054763794,922.1241474151611,1390,1
317,quadbright,21.0,14,1,968.4360027313232,968.4329032897949,1099,1
318,quadbright,22.0,11,1,825.4098892211914,825.4070281982422,962,1
319,quadbright,23.0,16,1,769.3731784820557,769.3710327148438,1315,1
320,quadbright,24.0,20,1,825.6549835205078,825.6502151489258,944,1
321,quadbright,25.0,15,1,1187.2992515563965,1187.2940063476562,901,1
322,quadbright,26.0,9,0,682.523250579834,682.5220584869385,1369,1
323,quadbright,27.0,11,1,823.6680030822754,823.6649036407471,997,1
324,quadbright,28.0,14,1,922.4121570587158,922.4069118499756,1465,1
325,quadbright,29.0,14,1,824.6002197265625,824.5949745178223,1268,1
326,quadbright,30.0,19,0,692.5058364868164,692.5029754638672,1269,0
327,quadbright,30.0,19,1,757.8768730163574,757.875919342041,1244,1
328,quadbright,5.0,2,1,98.63901138305664,758.7172985076904,972,1
329,quadbright,6.0,2,0,133.32724571228027,724.0200042724609,1442,1
330,quadbright,7.0,2,1,98.5262393951416,624.2690086364746,841,1
331,quadbright,8.0,2,0,135.2689266204834,727.7159690856934,1125,1
332,quadbright,9.0,2,1,658.8349342346191,658.8311195373535,1014,1
333,quadbright,10.0,8,1,636.3379955291748,636.3348960876465,1126,1
334,quadbright,11.0,11,1,792.6387786865234,792.6328182220459,1007,1
335,quadbright,12.0,12,1,590.8939838409424,590.8849239349365,1325,1
336,quadbright,13.0,11,1,901.5390872955322,901.5359878540039,803,1
337,quadbright,14.0,14,1,493.68906021118164,493.682861328125,1217,1
338,quadbright,15.0,9,0,99.42984580993652,791.130781173706,1368,0
339,quadbright,15.0,9,1,780.012845993042,780.012845993042,1235,0
340,quadbright,15.0,9,1,911.2303256988525,911.2293720245361,1221,1
341,quadbright,16.0,9,1,933.8202476501465,933.8080883026123,1051,1
342,quadbright,17.0,9,0,921.875,921.8709468841553,1082,1
343,quadbright,18.0,8,1,725.0669002532959,725.0659465789795,852,1
344,quadbright,19.0,9,1,790.9529209136963,790.9510135650635,1352,1
345,quadbright,20.0,8,1,692.903995513916,692.8999423980713,1163,1
346,quadbright,21.0,13,1,592.6618576049805,592.6580429077148,1156,1
347,quadbright,22.0,9,1,692.0680999755859,692.0602321624756,1204,1
348,quadbright,23.0,16,1,692.3420429229736,692.3398971557617,807,0
349,quadbright,23.0,16,1,736.260175704956,736.2561225891113,1319,1
350,quadbright,24.0,19,1,517.9672241210938,517.9662704467773,919,1
351,quadbright,25.0,15,1,932.9361915588379,932.9268932342529,1027,1
352,quadbright,26.0,11,1,792.6311492919922,792.6270961761475,1417,1
353,quadbright,27.0,9,1,890.4051780700684,890.4011249542236,839,1
354,quadbright,28.0,14,0,788.8269424438477,788.8178825378418,1148,1
355,quadbright,29.0,14,0,812.6649856567383,812.6628398895264,1316,1
356,quadbright,30.0,18,0,704.4191360473633,704.4150829315186,1179,1
357,quadbright,5.0,2,1,98.04201126098633,791.4400100708008,1000,1
358,quadbright,6.0,5,1,100.31723976135254,880.526065826416,1489,1
359,quadbright,7.0,2,0,230.7291030883789,911.452054977417,1137,1
360,quadbright,8.0,5,0,100.11005401611328,692.2321319580078,1008,0
361,quadbright,8.0,5,1,131.84523582458496,923.2771396636963,1436,1
362,quadbright,9.0,2,0,98.89817237854004,1119.2541122436523,957,1
363,quadbright,10.0,6,1,131.35886192321777,623.6331462860107,1458,1
364,quadbright,11.0,11,1,792.4189567565918,792.4118041992188,984,1
365,quadbright,12.0,11,1,714.2007350921631,714.1997814178467,1479,1
366,quadbright,13.0,11,1,792.9782867431641,792.9751873016357,844,1
367,quadbright,14.0,12,1,596.5330600738525,596.5299606323242,1132,1
368,quadbright,15.0,8,0,1010.6179714202881,1010.6179714202881,950,1
369,quadbright,16.0,9,1,979.18701171875,979.1860580444336,964,0
370,quadbright,16.0,9,1,791.1078929901123,791.104793548584,1033,1
371,quadbright,17.0,11,1,635.6861591339111,635.6830596923828,889,1
372,quadbright,18.0,8,1,792.5209999084473,792.5188541412354,955,1
373,quadbright,19.0,9,0,682.042121887207,682.0411682128906,905,1
374,quadbright,20.0,8,1,812.7038478851318,812.7028942108154,1380,1
375,quadbright,21.0,13,1,691.6701793670654,691.6651725769043,1368,1
376,quadbright,22.0,9,1,592.8890705108643,592.883825302124,914,1
377,quadbright,23.0,15,1,790.8928394317627,790.8849716186523,1451,1
378,quadbright,24.0,19,1,593.9280986785889,593.9271450042725,980,1
379,quadbright,25.0,14,1,682.2080612182617,682.2071075439453,1021,1
380,quadbright,26.0,11,0,683.3229064941406,683.3212375640869,913,1
381,quadbright,27.0,9,1,593.7657356262207,593.7557220458984,1099,1
382,quadbright,28.0,15,1,697.9532241821289,697.9432106018066,1354,1
383,quadbright,29.0,15,0,583.564043045044,583.5630893707275,947,1
384,quadbright,30.0,19,1,627.2671222686768,627.2633075714111,1269,1
385,quadbright,5.0,1,0,131.03985786437988,736.3269329071045,1137,1
386,quadbright,6.0,5,1,98.88601303100586,593.670129776001,853,1
387,quadbright,7.0,5,1,99.15709495544434,1028.505802154541,1125,1
388,quadbright,8.0,5,0,99.28393363952637,1087.9621505737305,835,1
389,quadbright,9.0,5,1,879.4119358062744,879.4119358062744,828,1
390,quadbright,10.0,6,1,593.7950611114502,593.7941074371338,1360,1
391,quadbright,11.0,9,1,891.2169933319092,891.211986541748,1176,1
392,quadbright,12.0,11,1,891.6468620300293,891.6428089141846,1414,1
393,quadbright,13.0,10,1,890.9280300140381,890.9220695495605,874,1
394,quadbright,14.0,12,1,779.1769504547119,779.1759967803955,1330,1
395,quadbright,15.0,9,0,888.9060020446777,888.8998031616211,946,1
396,quadbright,16.0,8,0,780.8411121368408,780.8399200439453,1234,1
397,quadbright,17.0,11,1,690.9871101379395,690.9830570220947,889,1
398,quadbright,18.0,6,1,685.9498023986816,685.9478950500488,1366,1
399,quadbright,19.0,11,1,713.4640216827393,713.4630680084229,1167,1
400,quadbright,20.0,6,0,1230.571985244751,1230.5679321289062,849,1
