trial,condition,eccentricity,magnitude,correct,srt_ms,keyboard_rt_ms,pre_change_ms,valid
1,control,5.0,20,1,98.17123413085938,1087.4853134155273,1014,1
2,control,6.0,20,1,99.44391250610352,923.7480163574219,1040,1
3,control,7.0,20,1,100.91495513916016,805.4230213165283,1449,0
4,control,7.0,20,1,99.04623031616211,892.5061225891113,888,1
5,control,8.0,20,1,100.24714469909668,922.7352142333984,1321,1
6,control,9.0,20,1,682.8250885009766,682.8241348266602,1123,1
7,control,10.0,20,1,200.38986206054688,1091.5589332580566,1290,1
8,control,11.0,20,1,792.3457622528076,792.3457622528076,811,1
9,control,12.0,20,1,98.76298904418945,822.443962097168,817,1
10,control,13.0,20,0,1607.3250770568848,1607.3229312896729,940,1
11,control,14.0,20,1,1093.3866500854492,1093.385934829712,915,1
12,control,15.0,20,1,791.4338111877441,791.4307117462158,1389,1
13,control,16.0,20,1,789.7520065307617,789.7439002990723,1361,1
14,control,17.0,20,1,791.1410331726074,791.1379337310791,1323,1
15,control,18.0,20,1,691.1458969116211,691.1439895629883,819,0
16,control,18.0,20,1,891.4289474487305,891.4258480072021,1002,1
17,control,19.0,20,1,892.8451538085938,892.8370475769043,1371,0
18,control,19.0,20,1,1206.6879272460938,1206.6872119903564,949,1
19,control,20.0,20,1,725.6507873535156,725.6491184234619,1326,1
20,control,21.0,20,1,692.7738189697266,692.7731037139893,1161,1
21,control,22.0,20,1,725.2800464630127,725.2790927886963,1357,1
22,control,23.0,20,1,791.3930416107178,791.3861274719238,1386,1
23,control,24.0,20,1,693.2449340820312,693.2437419891357,1243,1
24,control,25.0,20,1,703.1331062316895,703.1290531158447,1039,1
25,control,26.0,20,1,813.4829998016357,813.4820461273193,1384,1
26,control,27.0,20,1,691.7979717254639,691.7939186096191,1114,1
27,control,28.0,20,1,802.8528690338135,802.8509616851807,888,1
28,control,29.0,20,1,791.8331623077393,791.8257713317871,806,1
29,control,30.0,20,1,880.5849552154541,880.5840015411377,1070,1
30,control,5.0,20,1,99.31015968322754,496.4580535888672,1328,1
31,control,6.0,20,1,90.16203880310059,781.4228534698486,1351,1
32,control,7.0,20,1,99.09772872924805,890.2180194854736,969,1
33,control,8.0,20,1,825.2081871032715,825.2050876617432,1136,1
34,control,9.0,20,1,198.13013076782227,693.3639049530029,1214,1
35,control,10.0,20,1,779.059886932373,779.0589332580566,1104,1
36,control,11.0,20,1,695.51682472229,695.5127716064453,1188,1
37,control,12.0,20,1,692.6159858703613,692.6112174987793,1284,1
38,control,13.0,23,1,683.2079887390137,683.2070350646973,1251,1
39,control,14.0,20,1,698.8279819488525,698.8229751586914,1192,1
40,control,15.0,20,1,792.1977043151855,792.1957969665527,1325,1
41,control,16.0,20,1,1187.3509883880615,1187.3459815979004,1312,0
42,control,16.0,20,1,933.0348968505859,933.0339431762695,953,1
43,control,17.0,20,1,493.36981773376465,493.3650493621826,858,1
44,control,18.0,20,1,426.28002166748047,426.27835273742676,901,1
45,control,19.0,20,1,824.1100311279297,824.1090774536133,1318,1
46,control,20.0,20,1,715.1350975036621,715.1329517364502,1176,1
47,control,21.0,20,1,494.4589138031006,494.45462226867676,849,0
48,control,21.0,20,1,624.5119571685791,624.504804611206,919,0
49,control,21.0,20,1,922.9297637939453,922.9271411895752,1048,1
50,control,22.0,20,1,483.39200019836426,483.39104652404785,882,1
51,control,23.0,20,1,792.8087711334229,792.8080558776855,907,1
52,control,24.0,20,1,626.3158321380615,626.3151168823242,1455,1
53,control,25.0,20,1,1692.676067352295,1692.6729679107666,1417,1
54,control,26.0,20,1,788.1722450256348,788.1653308868408,1399,1
55,control,27.0,20,1,681.1859607696533,681.1850070953369,1255,1
56,control,28.0,20,1,1100.4188060760498,1100.4140377044678,1316,1
57,control,29.0,20,1,691.8952465057373,691.8902397155762,1183,1
58,control,30.0,20,1,692.9206848144531,692.9199695587158,927,1
59,control,5.0,17,1,99.63011741638184,493.4959411621094,860,1
60,control,6.0,17,1,99.74884986877441,1672.7089881896973,1080,1
61,control,7.0,17,1,99.25413131713867,693.4511661529541,1176,1
62,control,8.0,17,1,197.6149082183838,792.2060489654541,1319,1
63,control,9.0,17,1,582.7240943908691,582.7240943908691,1413,1
64,control,10.0,17,1,485.14580726623535,485.14485359191895,905,1
65,control,11.0,17,1,484.2991828918457,484.2979907989502,825,1
66,control,12.0,17,1,893.3038711547852,893.298864364624,1121,1
67,control,13.0,23,1,504.3630599975586,504.35900688171387,1176,1
68,control,14.0,17,1,1187.1819496154785,1187.1790885925293,868,1
69,control,15.0,17,1,594.3231582641602,594.3200588226318,1108,1
70,control,16.0,17,1,901.4191627502441,901.4151096343994,1019,1
71,control,17.0,17,1,991.6489124298096,991.6479587554932,1224,1
72,control,18.0,17,1,592.1478271484375,592.1409130096436,1050,1
73,control,19.0,17,1,701.6928195953369,701.6808986663818,842,1
74,control,20.0,17,1,725.5878448486328,725.5861759185791,1430,1
75,control,21.0,17,1,790.7989025115967,790.795087814331,1329,1
76,control,22.0,17,1,690.356969833374,690.3550624847412,1329,1
77,control,23.0,17,1,494.3578243255615,494.3568706512451,1343,1
78,control,24.0,17,1,891.1280632019043,891.1271095275879,1457,1
79,control,25.0,17,1,695.3818798065186,695.3799724578857,1286,1
80,control,26.0,17,1,584.1343402862549,584.1331481933594,1327,1
81,control,27.0,17,1,593.7440395355225,593.7390327453613,1005,1
82,control,28.0,17,1,1013.5560035705566,1013.5540962219238,1317,1
83,control,29.0,17,1,1208.6961269378662,1208.6951732635498,851,1
84,control,30.0,17,1,1176.788091659546,1176.7871379852295,1020,1
85,control,5.0,17,1,198.64487648010254,682.0359230041504,1365,1
86,control,6.0,17,1,593.1620597839355,593.1577682495117,1099,1
87,control,7.0,17,1,94.21277046203613,712.9218578338623,1442,1
88,control,8.0,17,1,198.52185249328613,526.7589092254639,847,1
89,control,9.0,17,1,200.41513442993164,525.4011154174805,973,1
90,control,10.0,17,1,515.5811309814453,515.5789852142334,1001,1
91,control,11.0,17,1,593.0228233337402,593.0197238922119,1178,1
92,control,12.0,17,1,791.6979789733887,791.6889190673828,1230,1
93,control,13.0,20,1,781.0301780700684,781.0289859771729,1169,1
94,control,14.0,17,1,582.2868347167969,582.2856426239014,1121,1
95,control,15.0,17,1,582.7310085296631,582.7298164367676,960,1
96,control,16.0,17,1,583.5072994232178,583.5063457489014,1476,1
97,control,17.0,17,1,790.2050018310547,790.2019023895264,1398,1
98,control,18.0,17,1,494.8430061340332,494.83489990234375,1401,1
99,control,19.0,17,1,604.6879291534424,604.6819686889648,1197,1
100,control,20.0,17,1,692.5158500671387,692.5110816955566,1355,1
101,control,21.0,17,1,703.4568786621094,703.4480571746826,1466,1
102,control,22.0,17,1,722.8269577026367,722.8240966796875,1190,1
103,control,23.0,17,1,495.2850341796875,495.2850341796875,1385,1
104,control,24.0,17,1,636.5020275115967,636.4920139312744,823,1
105,control,25.0,17,1,494.6267604827881,494.6258068084717,871,1
106,control,26.0,17,0,1087.6600742340088,1087.651014328003,1418,1
107,control,27.0,17,1,591.2318229675293,591.2268161773682,1414,1
108,control,28.0,17,1,691.4281845092773,691.4191246032715,1267,1
109,control,29.0,17,1,680.9308528900146,680.9301376342773,1390,1
110,control,30.0,17,1,722.1760749816895,722.1713066101074,949,1
111,control,5.0,14,1,105.09896278381348,730.8812141418457,1251,1
112,control,6.0,14,1,98.7708568572998,698.9598274230957,1172,1
113,control,7.0,14,1,99.22504425048828,494.5378303527832,1027,1
114,control,8.0,14,1,592.1957492828369,592.1857357025146,1170,1
115,control,9.0,14,1,296.94318771362305,493.2103157043457,1208,1
116,control,10.0,14,1,590.8269882202148,590.8186435699463,1080,1
117,control,11.0,14,1,494.1391944885254,494.13299560546875,826,1
118,control,12.0,14,1,615.4251098632812,615.4239177703857,1138,1
119,control,13.0,20,1,704.2539119720459,704.2508125305176,1156,1
120,control,14.0,14,1,495.46194076538086,495.46003341674805,921,1
121,control,15.0,14,1,594.0380096435547,594.0361022949219,930,1
122,control,16.0,14,1,493.06321144104004,493.0582046508789,1263,1
123,control,17.0,14,1,485.9001636505127,485.8989715576172,871,1
124,control,18.0,14,1,492.0792579650879,492.07615852355957,1104,1
125,control,19.0,14,1,495.1150417327881,495.1138496398926,1154,1
126,control,20.0,14,1,494.80605125427246,494.80509757995605,1170,1
127,control,21.0,14,1,603.8298606872559,603.8236618041992,963,1
128,control,22.0,14,1,594.4139957427979,594.4130420684814,870,1
129,control,23.0,14,1,594.581127166748,594.5761203765869,829,1
130,control,24.0,14,1,494.9769973754883,494.9760437011719,1120,1
131,control,25.0,14,1,493.79777908325195,493.790864944458,1044,1
132,control,26.0,20,1,629.7957897186279,629.770040512085,1401,1
133,control,27.0,14,1,693.1178569793701,693.1159496307373,812,1
134,control,28.0,14,1,592.890739440918,592.8859710693359,1071,1
135,control,29.0,14,1,692.2290325164795,692.227840423584,1038,1
136,control,30.0,14,1,1584.7649574279785,1584.7601890563965,1389,1
137,control,5.0,14,1,99.82490539550781,593.5192108154297,1067,1
138,control,6.0,14,1,96.89807891845703,623.4092712402344,1419,1
139,control,7.0,14,1,99.61581230163574,625.6880760192871,946,1
140,control,8.0,14,1,197.30496406555176,681.5898418426514,1162,1
141,control,9.0,14,1,691.3387775421143,691.3349628448486,915,1
142,control,10.0,14,1,592.8304195404053,592.8292274475098,904,1
143,control,11.0,14,1,483.50977897644043,483.50977897644043,1070,1
144,control,12.0,14,1,1198.754072189331,1198.749303817749,1234,1
145,control,13.0,17,1,494.83323097229004,494.8279857635498,914,1
146,control,14.0,14,1,494.07291412353516,494.06909942626953,1253,1
147,control,15.0,14,1,889.0807628631592,889.0728950500488,971,1
148,control,16.0,14,1,591.5300846099854,591.5257930755615,840,1
149,control,17.0,14,1,580.4448127746582,580.4438591003418,1238,1
150,control,18.0,14,1,484.8768711090088,484.8759174346924,1481,1
151,control,19.0,14,1,977.3180484771729,977.31614112854,862,1
152,control,20.0,14,1,892.8854465484619,892.8842544555664,1265,1
153,control,21.0,14,1,713.986873626709,713.9849662780762,1112,1
154,control,22.0,14,1,790.625810623169,790.6157970428467,1229,1
155,control,23.0,14,1,680.8841228485107,680.8831691741943,1412,1
156,control,24.0,14,1,591.907262802124,591.9051170349121,1467,1
157,control,25.0,14,1,593.0979251861572,593.0969715118408,878,1
158,control,26.0,20,1,623.9991188049316,623.9941120147705,906,1
159,control,27.0,14,1,593.1551456451416,593.1510925292969,1372,1
160,control,28.0,14,1,680.0410747528076,680.0398826599121,1346,1
161,control,29.0,14,1,505.79309463500977,505.7859420776367,876,1
162,control,30.0,14,1,886.2051963806152,886.2020969390869,1418,1
163,control,5.0,11,1,98.96397590637207,395.19381523132324,941,1
164,control,6.0,11,1,199.22304153442383,591.5310382843018,1169,1
165,control,7.0,11,1,329.4382095336914,524.8429775238037,1497,1
166,control,8.0,11,1,100.14796257019043,691.7469501495361,1100,1
167,control,9.0,11,1,483.49475860595703,483.49475860595703,1141,1
168,control,10.0,11,1,100.47578811645508,803.1749725341797,985,1
169,control,11.0,11,1,504.09412384033203,504.08315658569336,1492,1
170,control,12.0,11,1,495.07713317871094,495.0709342956543,1329,1
171,control,13.0,17,1,593.2209491729736,593.2180881500244,812,1
172,control,14.0,11,1,489.5510673522949,489.548921585083,878,1
173,control,15.0,11,1,691.9779777526855,691.9698715209961,985,1
174,control,16.0,11,1,493.3300018310547,493.32308769226074,819,1
175,control,17.0,11,1,493.6840534210205,493.6811923980713,1028,1
176,control,18.0,11,1,692.6219463348389,692.5311088562012,1060,1
177,control,19.0,11,1,582.9780101776123,582.9770565032959,1110,1
178,control,20.0,11,1,492.60520935058594,492.6009178161621,1241,1
179,control,21.0,11,1,591.9759273529053,591.972827911377,1112,1
180,control,22.0,11,1,703.7670612335205,703.7639617919922,1467,1
181,control,23.0,11,1,592.9439067840576,592.9379463195801,1159,1
182,control,24.0,11,1,593.040943145752,593.0149555206299,1126,1
183,control,25.0,11,1,822.6218223571777,822.6180076599121,905,1
184,control,26.0,18,1,612.6348972320557,612.6337051391602,1412,1
185,control,27.0,11,1,1186.13600730896,1186.1298084259033,802,1
186,control,28.0,11,1,592.6229953765869,592.6120281219482,1399,1
187,control,29.0,11,1,604.672908782959,604.6669483184814,884,1
188,control,30.0,11,1,722.0191955566406,722.0170497894287,1412,1
189,control,5.0,11,1,97.22781181335449,494.0218925476074,957,1
190,control,6.0,11,1,100.22807121276855,601.1459827423096,1500,1
191,control,7.0,11,1,101.44186019897461,498.29792976379395,1356,1
192,control,8.0,11,1,101.27615928649902,583.6930274963379,1444,1
193,control,9.0,11,1,625.9169578552246,625.9090900421143,1079,1
194,control,10.0,11,1,625.0290870666504,625.0238418579102,1322,1
195,control,11.0,11,1,989.372968673706,989.3689155578613,1062,1
196,control,12.0,11,1,494.9519634246826,494.9512481689453,1402,1
197,control,13.0,14,1,493.6797618865967,493.6788082122803,850,1
198,control,14.0,11,1,494.49992179870605,494.4920539855957,1112,1
199,control,15.0,11,1,494.1279888153076,494.1236972808838,1200,1
200,control,16.0,11,1,581.0592174530029,581.0580253601074,1050,1
201,control,17.0,11,1,624.9558925628662,624.9511241912842,944,1
202,control,18.0,11,1,1120.8078861236572,1120.804786682129,982,1
203,control,19.0,11,1,686.4922046661377,686.4912509918213,1027,1
204,control,20.0,11,1,624.453067779541,624.4428157806396,1255,1
205,control,21.0,11,1,692.9106712341309,692.9059028625488,903,1
206,control,22.0,11,1,484.9741458892822,484.9741458892822,1225,1
207,control,23.0,11,1,1186.892032623291,1186.8870258331299,885,1
208,control,24.0,11,1,794.3251132965088,794.3201065063477,999,1
209,control,25.0,11,1,693.9139366149902,693.9129829406738,1305,1
210,control,26.0,18,1,812.6571178436279,812.6559257507324,1374,1
211,control,27.0,11,1,724.4317531585693,724.4277000427246,1249,1
212,control,28.0,11,1,791.107177734375,791.09787940979,1027,1
213,control,29.0,11,1,592.8850173950195,592.8828716278076,875,1
214,control,30.0,11,1,703.3627033233643,703.3600807189941,941,1
215,control,5.0,8,1,492.7401542663574,492.7370548248291,832,0
216,control,5.0,8,1,100.13008117675781,691.1790370941162,830,1
217,control,6.0,8,1,97.90587425231934,494.4748878479004,1494,1
218,control,7.0,8,1,99.05481338500977,494.549036026001,1172,1
219,control,8.0,8,1,99.12705421447754,490.90003967285156,1332,1
220,control,9.0,8,1,593.7290191650391,593.7268733978271,879,1
221,control,10.0,8,1,495.0878620147705,495.0878620147705,1145,1
222,control,11.0,8,1,592.6787853240967,592.6709175109863,974,1
223,control,12.0,8,1,495.0859546661377,495.08118629455566,809,1
224,control,13.0,14,1,496.0789680480957,496.074914932251,1475,1
225,control,14.0,8,1,525.4671573638916,525.4621505737305,1320,1
226,control,15.0,8,1,988.8448715209961,988.8408184051514,1406,1
227,control,16.0,8,1,713.9079570770264,713.9072418212891,1354,1
228,control,17.0,8,0,1485.807180404663,1485.8062267303467,1478,1
229,control,18.0,8,1,590.9922122955322,590.9900665283203,1007,1
230,control,19.0,8,0,989.3739223480225,989.3679618835449,941,1
231,control,20.0,8,1,593.6188697814941,593.6157703399658,1207,1
232,control,21.0,8,1,593.9919948577881,593.9919948577881,1139,1
233,control,22.0,8,1,1318.2008266448975,1318.1970119476318,801,1
234,control,23.0,8,0,1208.4870338439941,1208.4860801696777,1168,1
235,control,24.0,8,1,593.4510231018066,593.4431552886963,842,1
236,control,25.0,8,1,495.0909614562988,495.0900077819824,1019,1
237,control,26.0,17,1,594.9599742889404,594.9499607086182,1320,1
238,control,27.0,8,1,792.309045791626,792.3080921173096,911,0
239,control,27.0,8,1,900.5048274993896,900.4969596862793,1168,1
240,control,28.0,8,1,1019.8268890380859,1019.8228359222412,1021,1
241,control,29.0,8,0,684.9360466003418,684.934139251709,1316,1
242,control,30.0,8,0,880.7029724121094,880.702018737793,1461,1
243,control,5.0,8,1,129.32491302490234,725.0070571899414,1214,1
244,control,6.0,8,1,198.82488250732422,693.0968761444092,1165,1
245,control,7.0,8,1,689.6328926086426,689.6140575408936,1475,1
246,control,8.0,8,1,196.9761848449707,483.5503101348877,1422,1
247,control,9.0,8,1,599.6091365814209,599.6050834655762,1237,1
248,control,10.0,8,1,98.4032154083252,693.0422782897949,1020,1
249,control,11.0,8,1,495.5778121948242,495.574951171875,848,1
250,control,12.0,8,1,1089.6379947662354,1089.6339416503906,1291,1
251,control,13.0,11,1,491.69206619262695,491.6858673095703,1171,1
252,control,14.0,8,1,693.4099197387695,693.4089660644531,1103,1
253,control,15.0,8,1,604.0921211242676,604.0732860565186,1205,1
254,control,16.0,8,1,483.9198589324951,483.9189052581787,1259,1
255,control,17.0,11,1,596.7099666595459,596.7059135437012,1259,1
256,control,18.0,8,1,1088.8519287109375,1088.8440608978271,1223,1
257,control,19.0,11,1,1208.7159156799316,1208.7149620056152,1491,1
258,control,20.0,8,0,1379.6610832214355,1379.6601295471191,1401,1
259,control,21.0,8,1,692.1112537384033,692.1050548553467,1480,1
260,control,22.0,8,1,603.6779880523682,603.6760807037354,1223,1
261,control,23.0,11,1,891.4539813995361,891.4501667022705,918,1
262,control,24.0,8,1,495.04804611206055,495.04685401916504,1168,1
263,control,25.0,8,1,681.8170547485352,681.8139553070068,1388,1
264,control,26.0,17,1,791.0139560699463,791.0120487213135,825,1
265,control,27.0,8,1,889.808177947998,889.7991180419922,1217,1
266,control,28.0,8,0,703.2277584075928,703.2239437103271,1128,1
267,control,29.0,11,1,582.2551250457764,582.2539329528809,803,1
268,control,30.0,11,1,691.4608478546143,691.4548873901367,882,1
269,control,5.0,5,1,1902.684211730957,1902.6832580566406,1198,1
270,control,6.0,5,1,783.0760478973389,783.0750942230225,1455,1
271,control,7.0,5,1,100.04591941833496,493.4070110321045,1445,1
272,control,8.0,5,1,592.4892425537109,592.4770832061768,845,1
273,control,9.0,5,1,494.00997161865234,494.0059185028076,970,0
274,control,9.0,5,1,198.90213012695312,694.1478252410889,1066,1
275,control,10.0,5,1,680.1187992095947,680.1176071166992,1226,1
276,control,11.0,5,1,1130.9409141540527,1130.934715270996,1392,1
277,control,12.0,5,1,495.78380584716797,495.78189849853516,1294,1
278,control,13.0,11,1,495.3751564025879,495.3742027282715,1495,1
279,control,14.0,5,1,989.7069931030273,989.7022247314453,1390,1
280,control,15.0,5,1,1088.6709690093994,1088.6669158935547,867,1
281,control,16.0,5,0,1078.1121253967285,1078.111171722412,882,1
282,control,17.0,11,1,494.21215057373047,494.20690536499023,1046,1
283,control,18.0,5,1,1573.4810829162598,1573.4798908233643,980,1
284,control,19.0,11,1,592.9501056671143,592.9429531097412,989,1
285,control,20.0,11,1,626.4708042144775,626.4688968658447,1032,1
286,control,21.0,5,1,791.1331653594971,791.1279201507568,1171,1
287,control,22.0,5,0,1087.0602130889893,1087.0540142059326,919,1
288,control,23.0,11,1,703.5419940948486,703.5362720489502,1291,1
289,control,24.0,5,1,982.0511341094971,982.0501804351807,1193,1
290,control,25.0,5,1,978.2707691192627,978.2688617706299,1463,1
291,control,26.0,15,1,690.5999183654785,690.5961036682129,993,1
292,control,27.0,5,1,1000.5910396575928,1000.5850791931152,833,1
293,control,28.0,11,1,596.4059829711914,596.3997840881348,1403,1
294,control,29.0,11,0,1022.1278667449951,1022.1209526062012,1077,1
295,control,30.0,11,1,691.0789012908936,691.0760402679443,1181,1
296,control,5.0,5,1,98.8161563873291,494.4751262664795,934,1
297,control,6.0,5,1,495.8000183105469,495.79501152038574,903,1
298,control,7.0,5,1,207.67688751220703,604.517936706543,862,1
299,control,8.0,5,1,196.9301700592041,592.5900936126709,1496,1
300,control,9.0,5,1,98.39797019958496,493.3948516845703,1229,1
301,control,10.0,5,1,101.00197792053223,502.87795066833496,1401,1
302,control,11.0,5,1,484.44390296936035,484.44271087646484,1222,1
303,control,12.0,5,1,581.409215927124,581.4080238342285,1483,1
304,control,13.0,8,1,492.02585220336914,492.01488494873047,1232,1
305,control,14.0,5,0,694.11301612854,694.11301612854,1005,1
306,control,15.0,5,1,691.1017894744873,691.0967826843262,808,1
307,control,16.0,8,1,99.7459888458252,624.1898536682129,1296,0
308,control,16.0,8,1,483.56103897094727,483.55984687805176,1263,1
309,control,17.0,9,1,625.4699230194092,625.4668235778809,942,1
310,control,18.0,5,1,801.9640445709229,801.959753036499,1206,1
311,control,19.0,9,1,890.1638984680176,890.1607990264893,1054,1
312,control,20.0,11,1,494.94409561157227,494.9378967285156,861,1
313,control,21.0,5,0,789.715051651001,789.710283279419,978,1
314,control,22.0,8,1,493.59798431396484,493.5941696166992,1206,1
315,control,23.0,9,1,900.986909866333,900.9828567504883,1461,1
316,control,24.0,5,1,690.2530193328857,690.2468204498291,1021,1
317,control,25.0,5,1,496.30093574523926,496.29712104797363,914,1
318,control,26.0,15,1,594.4812297821045,594.4790840148926,1439,1
319,control,27.0,5,0,692.080020904541,692.0719146728516,1012,1
320,control,28.0,11,1,792.6793098449707,792.6783561706543,1027,1
321,control,29.0,12,1,692.723274230957,692.716121673584,895,0
322,control,29.0,12,1,491.71996116638184,491.7118549346924,1080,1
323,control,30.0,9,1,402.1759033203125,402.16898918151855,1282,1
324,control,5.0,2,0,2408.501148223877,2408.4959030151367,1463,1
325,control,6.0,2,1,101.16982460021973,1410.0558757781982,1081,1
326,control,7.0,2,1,99.48396682739258,692.5280094146729,1183,0
327,control,7.0,2,1,97.27096557617188,690.0007724761963,921,1
328,control,8.0,2,0,207.12804794311523,603.3751964569092,1194,1
329,control,9.0,2,0,981.9207191467285,981.9190502166748,1137,1
330,control,10.0,2,1,891.0300731658936,891.0281658172607,928,1
331,control,11.0,2,1,823.3871459960938,823.383092880249,884,1
332,control,12.0,2,0,593.6012268066406,593.595027923584,1234,1
333,control,13.0,8,1,492.8147792816162,492.8088188171387,1213,1
334,control,14.0,8,1,684.0436458587646,684.0419769287109,1355,1
335,control,15.0,2,0,780.4889678955078,780.4877758026123,1251,1
336,control,16.0,8,1,690.9949779510498,690.9918785095215,1377,1
337,control,17.0,9,1,495.0258731842041,495.0246810913086,969,1
338,control,18.0,2,1,987.9839420318604,987.97607421875,1299,1
339,control,19.0,9,1,494.642972946167,494.63486671447754,1362,1
340,control,20.0,9,1,693.1812763214111,693.1812763214111,1470,1
341,control,21.0,8,1,493.38698387145996,493.3817386627197,819,1
342,control,22.0,8,1,584.8250389099121,584.8240852355957,844,1
343,control,23.0,9,1,492.8750991821289,492.8710460662842,1448,1
344,control,24.0,2,1,693.1247711181641,693.120002746582,830,1
345,control,25.0,2,1,735.9509468078613,735.9471321105957,1303,1
346,control,26.0,14,1,693.1240558624268,693.122148513794,1023,1
347,control,27.0,8,0,811.7361068725586,811.7351531982422,1224,1
348,control,28.0,9,1,891.1809921264648,891.1788463592529,1340,1
349,control,29.0,12,1,482.9080104827881,482.9070568084717,1114,1
350,control,30.0,9,1,525.9249210357666,525.9208679199219,1289,1
351,control,5.0,5,1,107.15103149414062,601.9430160522461,897,1
352,control,6.0,2,1,99.3039608001709,493.9730167388916,827,1
353,control,7.0,2,1,903.6979675292969,903.6951065063477,1316,1
354,control,8.0,5,1,98.39105606079102,493.837833404541,1401,1
355,control,9.0,5,1,896.9020843505859,896.9011306762695,813,1
356,control,10.0,2,0,98.10018539428711,1384.9079608917236,1099,1
357,control,11.0,2,0,1110.7661724090576,1110.7640266418457,932,1
358,control,12.0,5,1,591.6318893432617,591.6268825531006,1038,1
359,control,13.0,5,1,702.4478912353516,702.4431228637695,1171,1
360,control,14.0,8,1,593.7240123748779,593.721866607666,913,0
361,control,14.0,8,1,692.1708583831787,692.1658515930176,930,0
362,control,14.0,8,1,197.3400115966797,582.2610855102539,1234,1
363,control,15.0,5,1,800.724983215332,800.7209300994873,1237,1
364,control,16.0,6,1,592.7748680114746,592.7639007568359,1089,1
365,control,17.0,8,0,494.905948638916,494.9038028717041,1283,1
366,control,18.0,2,0,1476.2630462646484,1476.261854171753,828,1
367,control,19.0,8,1,680.7148456573486,680.7138919830322,1397,1
368,control,20.0,9,0,724.2558002471924,724.2438793182373,936,0
369,control,20.0,9,1,594.0022468566895,594.001293182373,837,1
370,control,21.0,8,1,604.9950122833252,604.992151260376,1004,1
371,control,22.0,6,0,779.7479629516602,779.7470092773438,1288,1
372,control,23.0,8,1,691.4370059967041,691.431999206543,813,1
373,control,24.0,2,1,690.9060478210449,690.9003257751465,814,1
374,control,25.0,2,0,593.9252376556396,593.9242839813232,1289,1
375,control,26.0,14,1,691.5829181671143,691.5760040283203,1359,1
376,control,27.0,11,1,692.1699047088623,692.1648979187012,1272,1
377,control,28.0,9,1,504.84609603881836,504.84299659729004,827,1
378,control,29.0,11,1,493.3009147644043,493.29686164855957,1478,1
379,control,30.0,8,1,1089.2798900604248,1089.2789363861084,881,1
380,control,5.0,5,1,102.18501091003418,595.128059387207,970,1
381,control,6.0,1,1,99.98893737792969,583.5487842559814,919,1
382,control,7.0,1,0,96.41909599304199,879.0590763092041,833,1
383,control,8.0,5,1,98.5558032989502,527.472972869873,1461,1
384,control,9.0,5,1,517.4610614776611,517.4603462219238,872,1
385,control,10.0,5,0,604.5758724212646,604.5701503753662,1311,1
386,control,11.0,5,1,495.0370788574219,495.03588676452637,921,1
387,control,12.0,5,1,505.4430961608887,505.43808937072754,1462,1
388,control,13.0,5,1,791.949987411499,791.9449806213379,895,1
389,control,14.0,6,1,506.0291290283203,506.026029586792,1204,1
390,control,15.0,5,0,900.0382423400879,900.0272750854492,1197,1
391,control,16.0,6,1,890.775203704834,890.7721042633057,1313,1
392,control,17.0,9,1,483.54482650756836,483.54482650756836,1117,1
393,control,18.0,5,0,892.0280933380127,892.0199871063232,1160,1
394,control,19.0,8,0,517.4710750579834,517.4710750579834,881,1
395,control,20.0,8,1,495.0840473175049,495.0830936431885,1202,1
396,control,21.0,6,1,691.0450458526611,691.0381317138672,918,1
397,control,22.0,8,1,491.7609691619873,491.75572395324707,972,1
398,control,23.0,8,1,701.7800807952881,701.7748355865479,1339,1
399,control,24.0,1,0,597.6288318634033,597.6250171661377,1117,1
400,control,25.0,5,0,493.3009147644043,493.2899475097656,1077,1
401,control,26.0,12,1,493.2208061218262,493.2138919830322,1197,1
402,control,27.0,11,1,725.0678539276123,725.0621318817139,1464,1
403,control,28.0,8,0,693.1641101837158,693.1571960449219,1269,1
404,control,29.0,11,0,692.3768520355225,692.3730373382568,895,1
405,control,30.0,8,1,692.8751468658447,692.8720474243164,829,1
1,quadbright,5.0,20,1,889.7340297698975,889.7311687469482,1376,1
2,quadbright,6.0,20,1,791.5937900543213,791.593074798584,1160,1
3,quadbright,7.0,20,1,99.00593757629395,1593.1329727172852,1419,1
4,quadbright,8.0,20,1,584.0532779693604,584.0520858764648,1341,0
5,quadbright,8.0,20,1,98.78301620483398,891.0729885101318,1237,1
6,quadbright,9.0,20,1,812.0830059051514,812.0818138122559,1064,1
7,quadbright,10.0,20,1,889.4460201263428,889.4448280334473,1252,1
8,quadbright,11.0,20,1,792.1237945556641,792.1218872070312,914,1
9,quadbright,12.0,20,1,997.830867767334,997.8270530700684,1205,1
10,quadbright,13.0,20,1,712.745189666748,712.7442359924316,1127,1
11,quadbright,14.0,20,1,693.0577754974365,693.0499076843262,819,1
12,quadbright,15.0,20,1,892.5919532775879,892.5888538360596,1457,1
13,quadbright,16.0,20,1,1396.101951599121,1396.0988521575928,1243,1
14,quadbright,17.0,20,1,922.799825668335,922.7948188781738,1335,1
15,quadbright,18.0,20,1,989.1879558563232,989.1822338104248,869,1
16,quadbright,19.0,20,1,889.8329734802246,889.8298740386963,1287,1
17,quadbright,20.0,20,1,691.472053527832,691.4660930633545,1385,0
18,quadbright,20.0,20,1,724.6122360229492,724.6110439300537,905,1
19,quadbright,21.0,20,1,691.277027130127,691.2691593170166,921,1
20,quadbright,22.0,20,1,700.7660865783691,700.7591724395752,1162,1
21,quadbright,23.0,20,1,592.1120643615723,592.1070575714111,1460,1
22,quadbright,24.0,20,1,798.7070083618164,798.7031936645508,1457,1
23,quadbright,25.0,20,1,622.1849918365479,622.1821308135986,966,1
24,quadbright,26.0,20,1,793.1921482086182,793.1911945343018,1186,1
25,quadbright,27.0,20,1,882.7979564666748,882.7967643737793,900,1
26,quadbright,28.0,20,1,734.2109680175781,734.2050075531006,1323,1
27,quadbright,29.0,20,1,683.4588050842285,683.4578514099121,1092,1
28,quadbright,30.0,20,1,780.4539203643799,780.4529666900635,953,1
29,quadbright,5.0,20,1,197.53170013427734,727.5078296661377,1426,1
30,quadbright,6.0,20,1,96.18306159973145,791.4819717407227,894,1
31,quadbright,7.0,20,1,989.6597862243652,989.6540641784668,1297,1
32,quadbright,8.0,20,1,493.41607093811035,493.41320991516113,848,0
33,quadbright,8.0,20,1,98.26397895812988,1507.9212188720703,810,1
34,quadbright,9.0,20,1,693.5417652130127,693.5408115386963,1119,1
35,quadbright,10.0,20,1,196.98309898376465,681.3488006591797,1029,1
36,quadbright,11.0,20,1,486.94872856140137,486.94777488708496,959,1
37,quadbright,12.0,20,1,494.75598335266113,494.75598335266113,914,1
38,quadbright,13.0,20,1,98.51980209350586,624.971866607666,1000,1
39,quadbright,14.0,20,1,790.8353805541992,790.8291816711426,1257,1
40,quadbright,15.0,20,1,889.0950679779053,889.0891075134277,1201,1
41,quadbright,16.0,20,1,792.0780181884766,792.0770645141602,878,1
42,quadbright,17.0,20,1,493.27898025512695,493.27707290649414,1110,1
43,quadbright,18.0,20,1,486.3390922546387,486.33813858032227,1350,1
44,quadbright,19.0,20,1,715.5909538269043,715.5900001525879,1349,1
45,quadbright,20.0,20,1,1099.4901657104492,1099.4880199432373,810,1
46,quadbright,21.0,20,1,1129.7340393066406,1129.728078842163,822,1
47,quadbright,22.0,20,1,791.7912006378174,791.7900085449219,879,1
48,quadbright,23.0,20,1,821.6798305511475,821.6776847839355,935,1
49,quadbright,24.0,20,1,713.6971950531006,713.6960029602051,1073,1
50,quadbright,25.0,20,1,693.0649280548096,693.0618286132812,1460,1
51,quadbright,26.0,20,1,891.2861347198486,891.2849426269531,1235,1
52,quadbright,27.0,20,1,1605.3521633148193,1605.351209640503,944,1
53,quadbright,28.0,20,1,693.310022354126,693.3093070983887,1176,1
54,quadbright,29.0,20,0,1077.1329402923584,1077.131986618042,1139,1
55,quadbright,30.0,20,1,1177.1960258483887,1177.1950721740723,1044,1
56,quadbright,5.0,17,1,131.18314743041992,735.7230186462402,1496,1
57,quadbright,6.0,17,1,205.2299976348877,603.2140254974365,1375,1
58,quadbright,7.0,17,1,100.08692741394043,494.25673484802246,1069,1
59,quadbright,8.0,17,1,100.08907318115234,504.12821769714355,1412,1
60,quadbright,9.0,17,1,98.27303886413574,495.0671195983887,1397,1
61,quadbright,10.0,17,1,493.59798431396484,493.5948848724365,814,1
62,quadbright,11.0,17,1,592.0281410217285,592.0219421386719,1182,1
63,quadbright,12.0,17,1,779.8058986663818,779.803991317749,1005,1
64,quadbright,13.0,17,1,791.7230129241943,791.7220592498779,1215,1
65,quadbright,14.0,17,1,724.8163223266602,724.8151302337646,1312,1
66,quadbright,15.0,17,1,725.6016731262207,725.5959510803223,1438,1
67,quadbright,16.0,17,1,692.7230358123779,692.7218437194824,1491,1
68,quadbright,17.0,17,1,716.5470123291016,716.5460586547852,1268,1
69,quadbright,18.0,17,1,723.5231399536133,723.520040512085,916,1
70,quadbright,19.0,17,1,583.5373401641846,583.5361480712891,1342,1
71,quadbright,20.0,17,1,588.2589817047119,588.2570743560791,1359,1
72,quadbright,21.0,17,1,683.894157409668,683.8929653167725,1149,1
73,quadbright,22.0,17,1,735.6488704681396,735.6448173522949,1204,1
74,quadbright,23.0,17,1,583.9653015136719,583.9643478393555,1162,1
75,quadbright,24.0,17,1,582.6213359832764,582.6201438903809,1211,1
76,quadbright,25.0,17,1,691.857099533081,691.8540000915527,1304,1
77,quadbright,26.0,17,1,592.6017761230469,592.5970077514648,1444,1
78,quadbright,27.0,17,1,1084.7249031066895,1084.7218036651611,1437,1
79,quadbright,28.0,17,0,1913.649082183838,1913.6450290679932,1230,1
80,quadbright,29.0,23,1,890.1309967041016,890.1219367980957,1100,1
81,quadbright,30.0,17,1,791.6831970214844,791.6762828826904,1045,1
82,quadbright,5.0,17,1,99.5488166809082,482.7277660369873,911,1
83,quadbright,6.0,17,1,98.89936447143555,504.5790672302246,823,1
84,quadbright,7.0,17,1,198.47512245178223,690.63401222229,1261,1
85,quadbright,8.0,17,1,583.3737850189209,583.3730697631836,1260,1
86,quadbright,9.0,17,1,99.32613372802734,626.1842250823975,1479,1
87,quadbright,10.0,17,1,97.46885299682617,624.5977878570557,1381,1
88,quadbright,11.0,17,1,624.6299743652344,624.626874923706,1083,1
89,quadbright,12.0,17,1,494.8751926422119,494.8740005493164,1018,1
90,quadbright,13.0,17,0,197.68285751342773,1078.2599449157715,1214,0
91,quadbright,13.0,17,1,692.0111179351807,692.0058727264404,1117,1
92,quadbright,14.0,17,1,593.4631824493408,593.4600830078125,1265,0
93,quadbright,14.0,17,1,691.0011768341064,691.00022315979,1107,1
94,quadbright,15.0,17,1,693.2170391082764,693.2151317596436,1381,1
95,quadbright,16.0,17,1,592.6897525787354,592.6828384399414,1378,1
96,quadbright,17.0,17,1,693.256139755249,693.2499408721924,932,1
97,quadbright,18.0,17,1,593.6448574066162,593.6441421508789,1085,1
98,quadbright,19.0,17,1,625.1909732818604,625.1869201660156,1369,1
99,quadbright,20.0,17,1,527.6451110839844,527.642011642456,1152,1
100,quadbright,21.0,17,1,992.5789833068848,992.57493019104,942,1
101,quadbright,22.0,17,1,593.8949584960938,593.8940048217773,1405,1
102,quadbright,23.0,17,1,593.0869579315186,593.0850505828857,929,1
103,quadbright,24.0,17,1,494.5068359375,494.49992179870605,1104,1
104,quadbright,25.0,17,1,691.6682720184326,691.6642189025879,1087,1
105,quadbright,26.0,17,1,592.2510623931885,592.2460556030273,1431,1
106,quadbright,27.0,17,1,698.4241008758545,698.4221935272217,1041,1
107,quadbright,28.0,20,1,793.0538654327393,793.0529117584229,970,1
108,quadbright,29.0,23,1,593.9211845397949,593.9211845397949,1315,1
109,quadbright,30.0,17,1,582.0560455322266,582.0550918579102,1155,1
110,quadbright,5.0,14,1,98.67095947265625,592.8370952606201,1041,1
111,quadbright,6.0,14,1,198.89402389526367,594.0742492675781,1209,1
112,quadbright,7.0,14,1,593.7111377716064,593.7049388885498,1284,1
113,quadbright,8.0,14,1,426.8457889556885,426.84268951416016,1281,1
114,quadbright,9.0,14,1,98.35195541381836,525.6481170654297,1308,1
115,quadbright,10.0,14,1,501.32226943969727,501.31702423095703,891,1
116,quadbright,11.0,14,1,603.9190292358398,603.9149761199951,1338,1
117,quadbright,12.0,14,1,492.7210807800293,492.71702766418457,1293,1
118,quadbright,13.0,14,1,626.2698173522949,626.2679100036621,918,1
119,quadbright,14.0,14,1,593.7070846557617,593.7032699584961,1292,0
120,quadbright,14.0,14,1,492.71273612976074,492.7067756652832,1268,1
121,quadbright,15.0,14,1,493.32475662231445,493.3209419250488,1115,1
122,quadbright,16.0,14,1,592.4139022827148,592.4069881439209,1330,1
123,quadbright,17.0,14,1,506.21700286865234,506.2131881713867,1177,1
124,quadbright,18.0,14,1,790.0760173797607,790.0731563568115,1141,1
125,quadbright,19.0,14,1,494.04191970825195,494.0378665924072,884,1
126,quadbright,20.0,14,1,901.235818862915,901.2296199798584,848,1
127,quadbright,21.0,14,1,802.6249408721924,802.617073059082,1027,1
128,quadbright,22.0,14,1,702.5470733642578,702.5439739227295,1160,1
129,quadbright,23.0,14,1,880.7258605957031,880.7249069213867,1416,1
130,quadbright,24.0,14,1,1011.2199783325195,1011.2190246582031,1044,1
131,quadbright,25.0,14,1,879.7399997711182,879.7369003295898,1135,1
132,quadbright,26.0,14,1,693.4452056884766,693.4442520141602,1013,1
133,quadbright,27.0,14,1,1900.9029865264893,1900.9020328521729,977,1
134,quadbright,28.0,20,1,692.0907497406006,692.0859813690186,1065,1
135,quadbright,29.0,21,0,879.112958908081,879.1120052337646,1440,1
136,quadbright,30.0,14,0,681.1988353729248,681.1981201171875,833,1
137,quadbright,5.0,14,1,99.09605979919434,494.6460723876953,917,1
138,quadbright,6.0,14,1,100.30889511108398,401.4871120452881,1412,1
139,quadbright,7.0,14,1,99.06220436096191,493.4051036834717,1138,1
140,quadbright,8.0,14,1,592.7817821502686,592.7736759185791,1070,1
141,quadbright,9.0,14,1,97.99695014953613,790.3428077697754,1290,1
142,quadbright,10.0,14,1,415.70115089416504,415.69995880126953,1421,1
143,quadbright,11.0,14,1,712.2108936309814,712.209939956665,975,1
144,quadbright,12.0,14,1,703.2110691070557,703.2079696655273,1037,1
145,quadbright,13.0,14,1,582.4282169342041,582.4272632598877,1376,1
146,quadbright,14.0,14,1,725.9619235992432,725.9609699249268,1188,1
147,quadbright,15.0,14,1,593.4641361236572,593.4622287750244,919,1
148,quadbright,16.0,14,1,722.0022678375244,721.994161605835,1195,1
149,quadbright,17.0,14,1,596.4899063110352,596.4860916137695,1278,1
150,quadbright,18.0,14,1,593.142032623291,593.1351184844971,1037,1
151,quadbright,19.0,14,1,1209.0890407562256,1209.0880870819092,1350,1
152,quadbright,20.0,14,1,605.6451797485352,605.6420803070068,1283,1
153,quadbright,21.0,14,1,702.7320861816406,702.7299404144287,848,1
154,quadbright,22.0,14,1,693.223237991333,693.2170391082764,847,1
155,quadbright,23.0,14,1,595.6840515136719,595.6830978393555,1184,1
156,quadbright,24.0,14,1,592.5028324127197,592.4928188323975,1259,1
157,quadbright,25.0,14,1,723.6828804016113,723.6759662628174,1448,1
158,quadbright,26.0,14,0,1329.9949169158936,1329.9908638000488,908,1
159,quadbright,27.0,14,1,592.6551818847656,592.6511287689209,957,1
160,quadbright,28.0,18,1,502.79808044433594,502.7961730957031,823,1
161,quadbright,29.0,23,1,492.33007431030273,492.3269748687744,1364,1
162,quadbright,30.0,17,0,1508.430004119873,1508.4290504455566,801,1
163,quadbright,5.0,11,1,98.78826141357422,494.8282241821289,1211,1
164,quadbright,6.0,11,1,99.33018684387207,494.25697326660156,941,1
165,quadbright,7.0,11,1,99.70974922180176,495.3498840332031,917,1
166,quadbright,8.0,11,1,592.479944229126,592.4711227416992,1392,1
167,quadbright,9.0,11,1,195.45221328735352,592.9672718048096,1165,1
168,quadbright,10.0,11,1,493.70336532592773,493.7002658843994,1442,1
169,quadbright,11.0,11,1,484.4038486480713,484.4028949737549,1449,1
170,quadbright,12.0,11,1,493.32714080810547,493.32618713378906,1105,1
171,quadbright,13.0,11,1,626.0180473327637,626.0170936584473,1086,1
172,quadbright,14.0,11,1,483.0279350280762,483.0279350280762,1130,1
173,quadbright,15.0,11,1,790.8570766448975,790.8501625061035,1216,1
174,quadbright,16.0,11,1,791.9871807098389,791.9831275939941,1044,1
175,quadbright,17.0,11,1,1132.242202758789,1132.2343349456787,1277,1
176,quadbright,18.0,11,1,678.8887977600098,678.8878440856934,1023,1
177,quadbright,19.0,11,0,988.7568950653076,988.7528419494629,1456,1
178,quadbright,20.0,11,1,780.7369232177734,780.735969543457,1020,1
179,quadbright,21.0,11,0,714.3340110778809,714.3328189849854,1365,1
180,quadbright,22.0,11,1,989.6447658538818,989.6368980407715,1479,1
181,quadbright,23.0,11,1,1088.0250930786133,1088.0210399627686,949,1
182,quadbright,24.0,11,1,988.5869026184082,988.584041595459,1371,1
183,quadbright,25.0,11,0,711.806058883667,711.8051052093506,930,1
184,quadbright,26.0,17,1,681.3061237335205,681.304931640625,1420,1
185,quadbright,27.0,11,1,1277.829885482788,1277.8289318084717,1356,1
186,quadbright,28.0,18,1,779.2041301727295,779.2022228240967,1403,1
187,quadbright,29.0,23,1,691.4560794830322,691.4529800415039,903,1
188,quadbright,30.0,20,1,691.4010047912598,691.3988590240479,929,1
189,quadbright,5.0,11,1,99.87211227416992,593.0590629577637,1200,1
190,quadbright,6.0,11,1,1188.3289813995361,1188.326120376587,1301,1
191,quadbright,7.0,11,1,99.76696968078613,494.1251277923584,1056,1
192,quadbright,8.0,11,1,129.6827793121338,612.3058795928955,810,1
193,quadbright,9.0,11,1,494.49706077575684,494.4891929626465,1416,1
194,quadbright,10.0,11,1,484.0660095214844,484.06505584716797,1500,1
195,quadbright,11.0,11,1,494.1732883453369,494.16232109069824,1019,1
196,quadbright,12.0,11,1,493.1447505950928,493.14093589782715,1340,1
197,quadbright,13.0,11,1,592.0147895812988,592.0119285583496,942,1
198,quadbright,14.0,11,1,494.79007720947266,494.7850704193115,1090,1
199,quadbright,15.0,11,1,494.25792694091797,494.25625801086426,1073,1
200,quadbright,16.0,11,1,506.32286071777344,506.3149929046631,952,1
201,quadbright,17.0,11,1,722.8431701660156,722.8410243988037,1276,1
202,quadbright,18.0,11,1,693.605899810791,693.601131439209,1189,1
203,quadbright,19.0,14,1,592.9672718048096,592.9641723632812,1045,0
204,quadbright,19.0,14,1,584.0160846710205,584.0141773223877,1206,1
205,quadbright,20.0,11,1,790.128231048584,790.1191711425781,1309,1
206,quadbright,21.0,14,1,524.8680114746094,524.8627662658691,864,1
207,quadbright,22.0,11,1,725.0549793243408,725.0540256500244,988,1
208,quadbright,23.0,11,0,1672.5878715515137,1672.5869178771973,1343,1
209,quadbright,24.0,11,1,1208.4879875183105,1208.4870338439941,1301,1
210,quadbright,25.0,14,1,880.1929950714111,880.1918029785156,1118,1
211,quadbright,26.0,17,1,790.2331352233887,790.229082107544,1183,1
212,quadbright,27.0,11,1,789.1910076141357,789.1881465911865,1188,1
213,quadbright,28.0,17,1,636.1820697784424,636.1789703369141,1487,1
214,quadbright,29.0,22,1,702.9969692230225,702.9929161071777,1109,1
215,quadbright,30.0,20,1,694.1230297088623,694.1218376159668,998,1
216,quadbright,5.0,8,1,99.23791885375977,494.7347640991211,1425,0
217,quadbright,5.0,8,1,691.3211345672607,691.3201808929443,1476,1
218,quadbright,6.0,8,1,197.33905792236328,622.3740577697754,1148,1
219,quadbright,7.0,8,1,98.876953125,526.9298553466797,1031,1
220,quadbright,8.0,8,1,99.23100471496582,636.5268230438232,1377,1
221,quadbright,9.0,8,1,593.8620567321777,593.858003616333,852,1
222,quadbright,10.0,8,1,493.7889575958252,493.7858581542969,901,1
223,quadbright,11.0,8,1,693.0458545684814,693.0458545684814,1040,1
224,quadbright,12.0,8,1,97.95093536376953,1020.7769870758057,809,0
225,quadbright,12.0,8,1,196.66266441345215,691.2856101989746,859,1
226,quadbright,13.0,8,1,195.58191299438477,596.8160629272461,1050,0
227,quadbright,13.0,8,1,297.9562282562256,594.6083068847656,890,1
228,quadbright,14.0,8,1,594.8657989501953,594.865083694458,1483,1
229,quadbright,15.0,8,1,593.2080745697021,593.2040214538574,944,0
230,quadbright,15.0,8,1,594.8278903961182,594.825267791748,868,1
231,quadbright,16.0,8,0,1276.3338088989258,1276.3326168060303,1438,1
232,quadbright,17.0,8,1,900.996208190918,900.9931087493896,1181,1
233,quadbright,18.0,8,1,1087.3370170593262,1087.3351097106934,1021,1
234,quadbright,19.0,14,1,626.6028881072998,626.5947818756104,1337,1
235,quadbright,20.0,8,1,592.9899215698242,592.987060546875,892,1
236,quadbright,21.0,14,1,593.0821895599365,593.0759906768799,1119,1
237,quadbright,22.0,8,1,890.7620906829834,890.7549381256104,1276,1
238,quadbright,23.0,14,0,914.6640300750732,914.6628379821777,917,1
239,quadbright,24.0,8,0,1307.4629306793213,1307.462215423584,1204,1
240,quadbright,25.0,14,1,781.4390659332275,781.437873840332,1355,1
241,quadbright,26.0,15,1,789.4861698150635,789.4799709320068,1317,0
242,quadbright,26.0,15,1,890.9008502960205,890.8970355987549,882,1
243,quadbright,27.0,8,1,1516.2560939788818,1516.254186630249,897,1
244,quadbright,28.0,17,0,895.5299854278564,895.5280780792236,1452,1
245,quadbright,29.0,22,1,493.5481548309326,493.5460090637207,1076,1
246,quadbright,30.0,18,1,583.5351943969727,583.5340023040771,1020,1
247,quadbright,5.0,8,1,494.9071407318115,494.9030876159668,1275,1
248,quadbright,6.0,8,1,198.13013076782227,692.9960250854492,1114,1
249,quadbright,7.0,8,1,198.21405410766602,692.9631233215332,967,1
250,quadbright,8.0,8,1,98.86288642883301,980.457067489624,1419,1
251,quadbright,9.0,8,1,493.38293075561523,493.3760166168213,879,1
252,quadbright,10.0,8,1,99.55382347106934,495.13721466064453,1075,1
253,quadbright,11.0,8,1,491.5332794189453,491.52326583862305,1142,1
254,quadbright,12.0,8,1,494.48513984680176,494.4798946380615,1479,1
255,quadbright,13.0,8,1,694.1111087799072,694.1070556640625,928,1
256,quadbright,14.0,8,1,592.8351879119873,592.8282737731934,1393,1
257,quadbright,15.0,8,1,990.5822277069092,990.5722141265869,874,1
258,quadbright,16.0,11,1,1220.3848361968994,1220.3819751739502,1177,1
259,quadbright,17.0,8,1,791.3038730621338,791.295051574707,1304,1
260,quadbright,18.0,8,0,724.3328094482422,724.3289947509766,1433,1
261,quadbright,19.0,12,1,720.8869457244873,720.8850383758545,818,1
262,quadbright,20.0,8,1,780.6761264801025,780.674934387207,1316,0
263,quadbright,20.0,8,0,1076.5650272369385,1076.563835144043,899,1
264,quadbright,21.0,12,0,889.2838954925537,889.2817497253418,1120,1
265,quadbright,22.0,8,0,802.8390407562256,802.8361797332764,1074,1
266,quadbright,23.0,17,1,591.7861461639404,591.7811393737793,1154,1
267,quadbright,24.0,11,1,723.4389781951904,723.4370708465576,1492,1
268,quadbright,25.0,12,1,1086.3070487976074,1086.3051414489746,1018,1
269,quadbright,26.0,15,0,680.4099082946777,680.4091930389404,1426,1
270,quadbright,27.0,8,0,1022.2499370574951,1022.2439765930176,1027,1
271,quadbright,28.0,18,1,891.3249969482422,891.3180828094482,809,1
272,quadbright,29.0,21,1,978.1570434570312,978.1560897827148,853,1
273,quadbright,30.0,18,1,691.1728382110596,691.166877746582,1164,1
274,quadbright,5.0,5,1,594.5549011230469,594.5529937744141,1255,1
275,quadbright,6.0,5,1,197.85690307617188,628.227949142456,924,1
276,quadbright,7.0,5,1,99.17020797729492,636.2872123718262,1408,1
277,quadbright,8.0,5,0,198.4090805053711,1296.8111038208008,1307,1
278,quadbright,9.0,5,0,198.93193244934082,1682.0499897003174,999,0
279,quadbright,9.0,5,1,493.4370517730713,493.43299865722656,1105,1
280,quadbright,10.0,5,1,96.01521492004395,583.6379528045654,1203,1
281,quadbright,11.0,5,1,592.9398536682129,592.9350852966309,1216,1
282,quadbright,12.0,5,1,712.8729820251465,712.8720283508301,988,1
283,quadbright,13.0,5,0,932.4438571929932,932.440996170044,1376,1
284,quadbright,14.0,5,1,989.6750450134277,989.6728992462158,1400,1
285,quadbright,15.0,5,1,891.6747570037842,891.6668891906738,1265,1
286,quadbright,16.0,11,1,695.7950592041016,695.7900524139404,820,1
287,quadbright,17.0,5,0,692.8880214691162,692.8870677947998,927,1
288,quadbright,18.0,11,1,593.5580730438232,593.552827835083,1484,1
289,quadbright,19.0,12,1,483.18004608154297,483.18004608154297,877,1
290,quadbright,20.0,11,1,602.0932197570801,602.0910739898682,845,1
291,quadbright,21.0,14,1,483.9310646057129,483.9301109313965,1323,1
292,quadbright,22.0,11,1,788.6526584625244,788.6457443237305,833,1
293,quadbright,23.0,17,1,890.7308578491211,890.7251358032227,1460,1
294,quadbright,24.0,11,0,680.5970668792725,680.595874786377,1418,1
295,quadbright,25.0,12,1,802.8860092163086,802.8697967529297,1451,0
296,quadbright,25.0,12,0,879.4989585876465,879.4989585876465,1467,1
297,quadbright,26.0,17,1,681.1931133270264,681.19215965271,1308,1
298,quadbright,27.0,11,0,624.1950988769531,624.1788864135742,1026,1
299,quadbright,28.0,18,1,694.8211193084717,694.8158740997314,807,1
300,quadbright,29.0,21,1,986.7770671844482,986.7761135101318,1331,1
301,quadbright,30.0,17,1,529.8948287963867,529.8929214477539,1296,1
302,quadbright,5.0,5,1,614.5651340484619,614.5641803741455,1313,0
303,quadbright,5.0,5,1,97.95308113098145,490.7839298248291,1489,1
304,quadbright,6.0,5,1,99.56097602844238,395.98894119262695,1129,1
305,quadbright,7.0,5,1,197.29995727539062,593.5139656066895,1321,1
306,quadbright,8.0,8,1,486.56773567199707,486.56511306762695,1189,1
307,quadbright,9.0,5,1,197.65400886535645,582.1840763092041,1137,0
308,quadbright,9.0,5,1,98.9530086517334,879.7760009765625,1037,1
309,quadbright,10.0,5,0,790.4388904571533,790.4360294342041,1441,1
310,quadbright,11.0,5,1,892.3697471618652,892.3687934875488,1336,1
311,quadbright,12.0,5,1,97.5639820098877,880.1391124725342,1183,1
312,quadbright,13.0,8,1,2101.896047592163,2101.893901824951,1018,1
313,quadbright,14.0,5,1,583.3380222320557,583.3380222320557,1173,1
314,quadbright,15.0,5,0,723.1862545013428,723.1800556182861,831,1
315,quadbright,16.0,9,1,560.6100559234619,560.6060028076172,949,1
316,quadbright,17.0,8,1,825.6478309631348,825.64377784729,1312,1
317,quadbright,18.0,11,0,814.7237300872803,814.7227764129639,849,1
318,quadbright,19.0,11,1,726.1760234832764,726.1691093444824,1283,1
319,quadbright,20.0,11,1,659.0931415557861,659.088134765625,1246,1
320,quadbright,21.0,14,1,394.53625679016113,394.5291042327881,1405,1
321,quadbright,22.0,11,1,789.1170978546143,789.1130447387695,965,0
322,quadbright,22.0,11,1,593.0929183959961,593.0848121643066,1344,1
323,quadbright,23.0,15,1,693.0806636810303,693.0797100067139,1229,1
324,quadbright,24.0,12,1,591.5582180023193,591.555118560791,884,1
325,quadbright,25.0,14,0,689.202070236206,689.1930103302002,1026,1
326,quadbright,26.0,17,1,802.7408123016357,802.7389049530029,840,1
327,quadbright,27.0,14,1,700.9270191192627,700.9189128875732,1241,1
328,quadbright,28.0,17,0,426.55014991760254,426.5451431274414,1093,1
329,quadbright,29.0,20,1,718.4820175170898,718.4808254241943,1124,1
330,quadbright,30.0,17,0,879.6489238739014,879.647970199585,1235,1
331,quadbright,5.0,2,1,100.87180137634277,978.3947467803955,800,1
332,quadbright,6.0,2,1,98.13189506530762,1208.0600261688232,1263,1
333,quadbright,7.0,2,0,86.52901649475098,878.3948421478271,975,1
334,quadbright,8.0,8,1,593.815803527832,593.8148498535156,1496,1
335,quadbright,9.0,2,0,1021.3329792022705,1021.3301181793213,1299,1
336,quadbright,10.0,8,1,493.0071830749512,493.00527572631836,1426,1
337,quadbright,11.0,2,0,725.7461547851562,725.7452011108398,1224,1
338,quadbright,12.0,2,0,925.3690242767334,925.3649711608887,1360,0
339,quadbright,12.0,2,0,880.1898956298828,880.1889419555664,1449,1
340,quadbright,13.0,8,1,497.0550537109375,497.05004692077637,1296,1
341,quadbright,14.0,2,0,692.5077438354492,692.5058364868164,919,1
342,quadbright,15.0,8,1,584.7339630126953,584.7330093383789,832,1
343,quadbright,16.0,9,1,623.507022857666,623.5039234161377,1114,1
344,quadbright,17.0,8,0,988.4898662567139,988.4860515594482,1283,1
345,quadbright,18.0,12,0,501.39403343200684,501.3918876647949,1394,1
346,quadbright,19.0,11,0,690.5150413513184,690.507173538208,879,0
347,quadbright,19.0,11,0,989.2439842224121,989.2420768737793,892,1
348,quadbright,20.0,9,1,483.4859371185303,483.48498344421387,1363,1
349,quadbright,21.0,13,1,493.8528537750244,493.84498596191406,877,1
350,quadbright,22.0,9,1,495.24879455566406,495.24784088134766,1171,1
351,quadbright,23.0,15,1,625.9663105010986,625.9562969207764,1484,0
352,quadbright,23.0,15,0,492.1112060546875,492.10286140441895,1489,1
353,quadbright,24.0,12,1,593.2788848876953,593.2741165161133,1124,1
354,quadbright,25.0,15,1,693.1610107421875,693.1588649749756,889,1
355,quadbright,26.0,16,1,702.3868560791016,702.3696899414062,1164,1
356,quadbright,27.0,14,0,493.9310550689697,493.9298629760742,1381,1
357,quadbright,28.0,18,0,1484.8291873931885,1484.8251342773438,1495,1
358,quadbright,29.0,20,1,485.5039119720459,485.5029582977295,861,1
359,quadbright,30.0,18,1,407.32693672180176,407.3216915130615,970,1
360,quadbright,5.0,2,0,100.96883773803711,987.677812576294,991,1
361,quadbright,6.0,2,1,394.03700828552246,394.0317630767822,1022,1
362,quadbright,7.0,5,1,98.94609451293945,483.1230640411377,1152,1
363,quadbright,8.0,6,1,98.37698936462402,494.9688911437988,1328,1
364,quadbright,9.0,5,1,493.5328960418701,493.5269355773926,1085,1
365,quadbright,10.0,8,1,491.64676666259766,491.64605140686035,1407,1
366,quadbright,11.0,5,0,682.2941303253174,682.2941303253174,1101,1
367,quadbright,12.0,5,0,889.808177947998,889.8060321807861,1430,1
368,quadbright,13.0,6,1,592.1609401702881,592.1590328216553,1137,1
369,quadbright,14.0,5,0,788.4180545806885,788.4118556976318,1368,1
370,quadbright,15.0,8,1,494.6110248565674,494.60911750793457,1008,1
371,quadbright,16.0,8,1,688.6699199676514,688.6630058288574,1399,1
372,quadbright,17.0,9,1,592.7648544311523,592.7598476409912,1236,1
373,quadbright,18.0,14,0,394.0730094909668,394.071102142334,1129,1
374,quadbright,19.0,12,1,492.3231601715088,492.31815338134766,1320,1
375,quadbright,20.0,9,1,692.5568580627441,692.5559043884277,805,1
376,quadbright,21.0,13,1,592.8127765655518,592.8089618682861,991,1
377,quadbright,22.0,9,0,605.8521270751953,605.849027633667,1414,1
378,quadbright,23.0,17,1,692.1920776367188,692.1830177307129,1394,1
379,quadbright,24.0,11,0,494.3501949310303,494.34614181518555,925,1
380,quadbright,25.0,15,0,293.6408519744873,293.63512992858887,1301,1
381,quadbright,26.0,16,1,503.0338764190674,503.02910804748535,1065,1
382,quadbright,27.0,15,1,593.2037830352783,593.1999683380127,1188,1
383,quadbright,28.0,19,1,692.0778751373291,692.0750141143799,1341,1
384,quadbright,29.0,19,1,596.7018604278564,596.7001914978027,1196,1
385,quadbright,30.0,18,1,493.75295639038086,493.7460422515869,1366,1
386,quadbright,5.0,5,1,98.42491149902344,493.57080459594727,1336,1
387,quadbright,6.0,1,1,98.86884689331055,1001.518726348877,1206,1
388,quadbright,7.0,5,1,97.7468490600586,483.22415351867676,1408,1
389,quadbright,8.0,6,1,714.2441272735596,714.2431735992432,1225,1
390,quadbright,9.0,5,1,593.5301780700684,593.5289859771729,920,1
391,quadbright,10.0,6,1,493.47996711730957,493.47400665283203,900,1
392,quadbright,11.0,8,1,496.6120719909668,496.6099262237549,972,1
393,quadbright,12.0,8,1,496.72889709472656,496.72412872314453,943,1
394,quadbright,13.0,6,1,891.5677070617676,891.5667533874512,912,1
395,quadbright,14.0,8,1,713.2570743560791,713.2570743560791,1266,1
396,quadbright,15.0,6,0,1416.750192642212,1416.7439937591553,1049,1
397,quadbright,16.0,8,1,684.9620342254639,684.959888458252,1214,1
398,quadbright,17.0,9,1,779.6230316162109,779.6218395233154,1458,1
399,quadbright,18.0,15,0,692.1892166137695,692.1792030334473,819,1
400,quadbright,19.0,12,0,494.70996856689453,494.70996856689453,1252,1
401,quadbright,20.0,8,1,492.17915534973145,492.17724800109863,1214,1
402,quadbright,21.0,12,1,495.49388885498047,495.49293518066406,849,1
403,quadbright,22.0,11,1,592.4999713897705,592.4949645996094,1445,1
404,quadbright,23.0,17,0,401.0050296783447,401.0031223297119,1267,1
405,quadbright,24.0,12,1,693.1867599487305,693.1829452514648,1218,1
406,quadbright,25.0,16,0,594.0098762512207,594.0079689025879,1332,1
407,quadbright,26.0,15,1,496.9768524169922,496.9749450683594,988,1
408,quadbright,27.0,15,1,603.9600372314453,603.9538383483887,1247,1
409,quadbright,28.0,19,1,499.3281364440918,499.3271827697754,1373,1
410,quadbright,29.0,19,1,597.1229076385498,597.1047878265381,1151,1
