trial,condition,eccentricity,magnitude,correct,srt_ms,keyboard_rt_ms,pre_change_ms,valid
1,control,5.0,20,1,98.62685203552246,2176.846742630005,1317,1
2,control,6.0,20,1,197.6461410522461,980.2670478820801,970,1
3,control,7.0,20,1,793.6990261077881,793.6980724334717,1371,1
4,control,8.0,20,1,204.22887802124023,801.6347885131836,1063,1
5,control,9.0,20,1,683.3200454711914,683.319091796875,1218,1
6,control,10.0,20,1,595.4797267913818,595.4775810241699,1228,1
7,control,11.0,20,1,782.0127010345459,782.0107936859131,803,1
8,control,12.0,20,1,802.044153213501,802.0412921905518,957,1
9,control,13.0,20,1,592.6580429077148,592.6551818847656,1071,1
10,control,14.0,20,1,483.8871955871582,483.8862419128418,1253,1
11,control,15.0,20,1,692.0230388641357,692.0211315155029,1193,1
12,control,16.0,20,0,6072.503089904785,6072.502136230469,972,1
13,control,17.0,20,1,790.8220291137695,790.8179759979248,1214,1
14,control,18.0,20,1,632.2450637817383,632.2429180145264,1104,1
15,control,19.0,20,1,714.2548561096191,714.2536640167236,1382,1
16,control,20.0,20,1,626.7638206481934,626.762866973877,940,1
17,control,21.0,20,1,624.547004699707,624.5439052581787,1230,1
18,control,22.0,20,1,792.1919822692871,792.1898365020752,990,1
19,control,23.0,20,1,913.1729602813721,913.1720066070557,1413,1
20,control,24.0,20,1,682.5189590454102,682.5180053710938,1479,1
21,control,25.0,20,1,695.0581073760986,695.0569152832031,1274,1
22,control,26.0,20,1,791.2280559539795,791.2211418151855,1128,1
23,control,27.0,20,1,781.0649871826172,781.0640335083008,1225,1
24,control,28.0,20,1,1125.1530647277832,1125.1499652862549,1004,1
25,control,29.0,20,1,1177.4072647094727,1177.4063110351562,1071,1
26,control,30.0,20,0,3296.0257530212402,3296.0238456726074,991,1
27,control,5.0,20,1,231.02307319641113,724.6792316436768,1039,1
28,control,6.0,20,1,98.9692211151123,485.00514030456543,1091,1
29,control,7.0,20,1,99.53689575195312,493.3338165283203,1224,1
30,control,8.0,20,1,691.7629241943359,691.756010055542,881,1
31,control,9.0,20,1,792.6390171051025,792.6380634307861,995,1
32,control,10.0,20,1,793.0710315704346,793.0660247802734,1006,1
33,control,11.0,20,1,912.3721122741699,912.3713970184326,1279,1
34,control,12.0,20,0,2366.070032119751,2366.070032119751,1262,1
35,control,13.0,20,1,826.836109161377,826.8351554870605,877,1
36,control,14.0,20,1,823.4531879425049,823.4481811523438,862,1
37,control,15.0,20,1,584.7570896148682,584.7561359405518,1120,1
38,control,16.0,23,1,584.5041275024414,584.503173828125,1054,1
39,control,17.0,20,1,583.7550163269043,583.7540626525879,1123,1
40,control,18.0,20,1,1395.8830833435059,1395.8752155303955,1152,1
41,control,19.0,20,1,1023.291826248169,1023.2839584350586,1488,1
42,control,20.0,20,1,593.2981967926025,593.2962894439697,1069,1
43,control,21.0,20,1,796.8108654022217,796.809196472168,1447,1
44,control,22.0,20,1,791.6278839111328,791.6228771209717,884,1
45,control,23.0,20,1,591.9370651245117,591.9349193572998,1213,1
46,control,24.0,20,1,582.4379920959473,582.4370384216309,1426,1
47,control,25.0,20,1,1407.0558547973633,1407.0546627044678,824,1
48,control,26.0,20,1,2373.798131942749,2373.7950325012207,976,1
49,control,27.0,20,1,3012.2601985931396,3012.254238128662,1445,1
50,control,28.0,20,1,1632.4329376220703,1632.431983947754,1200,1
51,control,29.0,20,1,993.2961463928223,993.2940006256104,1170,1
52,control,30.0,23,1,1574.0890502929688,1574.0880966186523,1297,1
53,control,5.0,17,1,197.7379322052002,592.5898551940918,1230,1
54,control,6.0,17,1,105.52716255187988,589.7741317749023,867,1
55,control,7.0,17,1,99.95579719543457,690.9170150756836,800,1
56,control,8.0,17,1,197.11613655090332,714.1008377075195,834,1
57,control,9.0,17,1,493.61109733581543,493.6048984527588,854,1
58,control,10.0,17,1,494.8313236236572,494.8301315307617,920,1
59,control,11.0,17,1,596.8670845031738,596.8639850616455,1245,1
60,control,12.0,23,1,594.8641300201416,594.8610305786133,1156,1
61,control,13.0,17,1,794.2798137664795,794.2771911621094,1246,1
62,control,14.0,17,1,594.1808223724365,594.1798686981201,1493,1
63,control,15.0,17,1,790.3637886047363,790.3621196746826,1473,1
64,control,16.0,23,1,684.36598777771,684.363842010498,1363,1
65,control,17.0,17,1,801.1898994445801,801.18727684021,1256,1
66,control,18.0,17,1,812.8478527069092,812.8468990325928,1391,1
67,control,19.0,17,1,681.5011501312256,681.5001964569092,1231,1
68,control,20.0,17,1,692.0299530029297,692.0280456542969,876,1
69,control,21.0,17,1,692.781925201416,692.7769184112549,850,1
70,control,22.0,17,1,690.9470558166504,690.946102142334,1054,1
71,control,23.0,17,1,681.7657947540283,681.765079498291,1057,1
72,control,24.0,17,1,594.243049621582,594.2420959472656,1046,1
73,control,25.0,17,1,682.4381351470947,682.4381351470947,1234,1
74,control,26.0,17,1,800.961971282959,800.9600639343262,1414,1
75,control,27.0,17,1,1021.4998722076416,1021.4951038360596,1112,1
76,control,28.0,17,0,924.6208667755127,924.6110916137695,1311,1
77,control,29.0,17,1,1376.6231536865234,1376.622200012207,838,1
78,control,30.0,23,1,824.0981101989746,824.0940570831299,1430,1
79,control,5.0,17,0,99.52688217163086,3299.3550300598145,1226,1
80,control,6.0,17,1,198.89092445373535,922.982931137085,826,1
81,control,7.0,17,1,99.58720207214355,593.1761264801025,1379,1
82,control,8.0,17,1,601.5148162841797,601.5090942382812,1376,1
83,control,9.0,17,1,189.52012062072754,784.182071685791,1172,1
84,control,10.0,17,1,528.0120372772217,528.0108451843262,1074,1
85,control,11.0,17,1,682.136058807373,682.1351051330566,1241,1
86,control,12.0,23,1,495.87512016296387,495.86987495422363,1172,1
87,control,13.0,17,1,793.5576438903809,793.5547828674316,1184,1
88,control,14.0,17,1,683.6538314819336,683.6528778076172,1060,1
89,control,15.0,17,1,604.5660972595215,604.5620441436768,1152,1
90,control,16.0,20,1,791.2709712982178,791.2700176239014,1134,1
91,control,17.0,17,1,725.2349853515625,725.2321243286133,1123,1
92,control,18.0,17,1,791.7380332946777,791.7361259460449,1494,1
93,control,19.0,17,1,912.9507541656494,912.949800491333,1165,1
94,control,20.0,17,1,989.5229339599609,989.5210266113281,1051,1
95,control,21.0,17,1,592.5998687744141,592.5958156585693,1288,1
96,control,22.0,17,1,792.3121452331543,792.3099994659424,1343,1
97,control,23.0,17,1,582.2951793670654,582.2939872741699,1111,1
98,control,24.0,17,1,583.1828117370605,583.1818580627441,1311,1
99,control,25.0,17,1,716.5658473968506,716.5648937225342,823,1
100,control,26.0,17,1,593.6720371246338,593.6708450317383,1049,1
101,control,27.0,17,1,790.7240390777588,790.7199859619141,1443,1
102,control,28.0,20,1,584.0330123901367,584.0308666229248,1261,1
103,control,29.0,17,1,493.96705627441406,493.96204948425293,1495,1
104,control,30.0,20,1,1517.7199840545654,1517.7171230316162,1078,1
105,control,5.0,20,1,100.27313232421875,583.9951038360596,899,1
106,control,6.0,14,1,99.61223602294922,594.2521095275879,888,1
107,control,7.0,14,1,626.223087310791,626.2221336364746,965,1
108,control,8.0,14,1,98.22797775268555,494.189977645874,1061,1
109,control,9.0,14,1,98.74892234802246,682.0690631866455,1146,0
110,control,9.0,14,1,98.89101982116699,603.9707660675049,874,1
111,control,10.0,14,1,200.78587532043457,603.9810180664062,1500,1
112,control,11.0,14,0,2174.6160984039307,2174.6082305908203,1075,1
113,control,12.0,21,1,781.1329364776611,781.1317443847656,1022,1
114,control,13.0,14,0,1980.1268577575684,1980.1247119903564,1463,1
115,control,14.0,14,1,596.4829921722412,596.4820384979248,1094,1
116,control,15.0,14,1,596.674919128418,596.6718196868896,1218,1
117,control,16.0,20,1,493.99495124816895,493.99304389953613,1143,1
118,control,17.0,14,1,789.3266677856445,789.3218994140625,1309,1
119,control,18.0,14,1,581.2690258026123,581.2680721282959,981,1
120,control,19.0,14,1,1125.7588863372803,1125.7550716400146,1035,1
121,control,20.0,14,1,616.1842346191406,616.1830425262451,1288,1
122,control,21.0,14,1,623.6200332641602,623.6140727996826,1031,1
123,control,22.0,14,0,890.8188343048096,890.8166885375977,1291,1
124,control,23.0,14,0,892.7838802337646,892.7807807922363,1215,1
125,control,24.0,14,1,1177.3228645324707,1177.3219108581543,950,1
126,control,25.0,14,1,990.7269477844238,990.7262325286865,1082,1
127,control,26.0,14,0,924.0691661834717,924.0670204162598,956,1
128,control,27.0,14,1,827.0359039306641,827.0339965820312,1238,1
129,control,28.0,20,1,822.5228786468506,822.5207328796387,1214,1
130,control,29.0,14,1,604.2146682739258,604.2137145996094,1427,1
131,control,30.0,20,1,1157.8922271728516,1157.8912734985352,1371,1
132,control,5.0,20,1,187.7729892730713,813.5509490966797,1079,1
133,control,6.0,14,1,197.89958000183105,791.3799285888672,805,1
134,control,7.0,14,1,598.9620685577393,598.95920753479,932,1
135,control,8.0,14,1,790.2472019195557,790.2450561523438,1394,1
136,control,9.0,14,1,725.7978916168213,725.7921695709229,849,1
137,control,10.0,14,1,925.3597259521484,925.3578186035156,1357,1
138,control,11.0,17,1,1618.9250946044922,1618.9229488372803,1061,1
139,control,12.0,21,1,593.0559635162354,593.0540561676025,1290,1
140,control,13.0,17,1,692.0640468597412,692.0597553253174,1308,1
141,control,14.0,14,1,780.6048393249512,780.6038856506348,1266,1
142,control,15.0,14,0,1407.3247909545898,1407.3238372802734,902,1
143,control,16.0,17,1,713.3920192718506,713.3910655975342,1468,1
144,control,17.0,14,1,813.0738735198975,813.072919845581,847,1
145,control,18.0,14,1,681.4641952514648,681.4630031585693,1375,1
146,control,19.0,14,1,582.9207897186279,582.9198360443115,973,1
147,control,20.0,14,1,1033.064842224121,1033.0610275268555,1492,1
148,control,21.0,14,1,791.898250579834,791.8961048126221,1148,1
149,control,22.0,17,1,789.6060943603516,789.5998954772949,840,1
150,control,23.0,17,1,599.7090339660645,599.7059345245361,834,1
151,control,24.0,14,1,1021.4540958404541,1021.4440822601318,1155,1
152,control,25.0,14,0,1275.2158641815186,1275.214672088623,1442,1
153,control,26.0,17,1,1572.7150440216064,1572.71409034729,801,1
154,control,27.0,14,1,827.4638652801514,827.4617195129395,1126,1
155,control,28.0,18,1,979.6938896179199,979.6919822692871,1126,1
156,control,29.0,14,1,1585.0849151611328,1585.0830078125,1044,1
157,control,30.0,17,1,1011.7080211639404,1011.707067489624,946,1
158,control,5.0,18,1,99.46012496948242,593.7561988830566,981,1
159,control,6.0,11,1,100.6460189819336,591.4251804351807,1319,1
160,control,7.0,11,1,704.7569751739502,704.7548294067383,893,0
161,control,7.0,11,1,594.4430828094482,594.4390296936035,1011,1
162,control,8.0,11,1,196.92277908325195,713.9687538146973,1057,1
163,control,9.0,11,1,792.3269271850586,792.3221588134766,805,1
164,control,10.0,11,1,593.9671993255615,593.966007232666,1096,1
165,control,11.0,17,1,626.4040470123291,626.4019012451172,1250,1
166,control,12.0,20,1,497.1661567687988,497.1630573272705,1237,1
167,control,13.0,17,1,595.7748889923096,595.7717895507812,1028,1
168,control,14.0,11,1,592.1788215637207,592.1766757965088,881,1
169,control,15.0,17,1,790.5912399291992,790.5881404876709,1357,1
170,control,16.0,17,1,1011.7781162261963,1011.7771625518799,1404,1
171,control,17.0,11,1,790.9219264984131,790.9188270568848,862,1
172,control,18.0,11,0,2023.7650871276855,2023.7603187561035,888,1
173,control,19.0,11,1,693.6120986938477,693.6099529266357,1217,1
174,control,20.0,11,1,495.1961040496826,495.1951503753662,1496,1
175,control,21.0,11,0,781.8610668182373,781.8601131439209,1305,1
176,control,22.0,17,1,814.7542476654053,814.7530555725098,1198,1
177,control,23.0,17,1,593.6009883880615,593.5988426208496,1303,1
178,control,24.0,11,1,694.3087577819824,694.3061351776123,1254,1
179,control,25.0,17,1,791.1727428436279,791.1508083343506,1349,1
180,control,26.0,17,1,804.656982421875,804.6531677246094,1024,1
181,control,27.0,11,0,1177.8790950775146,1177.8781414031982,1327,1
182,control,28.0,18,1,1032.7229499816895,1032.7198505401611,1060,1
183,control,29.0,11,0,1209.5081806182861,1209.5072269439697,1062,1
184,control,30.0,17,1,781.090259552002,781.0890674591064,1017,1
185,control,5.0,18,1,97.19705581665039,594.5909023284912,1446,1
186,control,6.0,11,1,98.39391708374023,496.9289302825928,1309,1
187,control,7.0,11,1,98.9840030670166,494.4572448730469,1052,1
188,control,8.0,11,1,792.7491664886475,792.7460670471191,1346,1
189,control,9.0,11,1,99.83277320861816,506.04701042175293,1294,1
190,control,10.0,11,1,596.5611934661865,596.5580940246582,1000,1
191,control,11.0,15,1,593.5139656066895,593.5089588165283,960,1
192,control,12.0,20,1,592.8089618682861,592.8070545196533,1340,1
193,control,13.0,15,1,978.4860610961914,978.485107421875,1491,1
194,control,14.0,11,1,596.7929363250732,596.790075302124,1165,1
195,control,15.0,17,1,495.1128959655762,495.11003494262695,1471,1
196,control,16.0,14,1,591.3050174713135,591.2959575653076,1303,1
197,control,17.0,11,1,724.1630554199219,724.1592407226562,949,1
198,control,18.0,14,1,1321.2060928344727,1321.2029933929443,804,1
199,control,19.0,11,0,925.5309104919434,925.5290031433105,1137,1
200,control,20.0,11,1,1011.8482112884521,1011.8470191955566,1497,1
201,control,21.0,14,1,1176.5539646148682,1176.5527725219727,1349,1
202,control,22.0,15,1,593.1968688964844,593.1918621063232,1329,1
203,control,23.0,15,1,594.1810607910156,594.1798686981201,1084,1
204,control,24.0,11,1,790.0290489196777,790.0259494781494,921,0
205,control,24.0,11,1,592.2219753265381,592.2150611877441,931,1
206,control,25.0,17,1,988.4688854217529,988.4679317474365,862,1
207,control,26.0,15,1,593.9719676971436,593.9662456512451,1273,1
208,control,27.0,14,1,589.6189212799072,589.6139144897461,985,1
209,control,28.0,17,1,594.0952301025391,594.0940380096436,1365,1
210,control,29.0,14,0,900.8772373199463,900.8703231811523,807,1
211,control,30.0,14,1,790.8990383148193,790.8909320831299,1155,1
212,control,5.0,17,1,99.65991973876953,494.251012802124,1006,1
213,control,6.0,8,1,99.60794448852539,503.7870407104492,971,1
214,control,7.0,8,1,494.0340518951416,494.02880668640137,1120,1
215,control,8.0,8,1,604.7759056091309,604.7708988189697,1151,1
216,control,9.0,8,0,99.74288940429688,981.8291664123535,803,1
217,control,10.0,8,1,727.3709774017334,727.3681163787842,955,1
218,control,11.0,15,1,493.57128143310547,493.56818199157715,1186,1
219,control,12.0,18,1,495.30506134033203,495.3010082244873,1132,1
220,control,13.0,15,1,588.5999202728271,588.5980129241943,1472,1
221,control,14.0,8,1,581.6659927368164,581.6640853881836,972,1
222,control,15.0,15,1,692.1119689941406,692.1088695526123,1265,1
223,control,16.0,14,1,599.4522571563721,599.4491577148438,1407,1
224,control,17.0,8,1,592.9889678955078,592.9839611053467,1158,1
225,control,18.0,14,1,505.6009292602539,505.5961608886719,1482,1
226,control,19.0,14,1,725.226879119873,725.2259254455566,1248,1
227,control,20.0,8,0,879.6517848968506,879.6498775482178,1169,1
228,control,21.0,14,1,798.598051071167,798.5942363739014,1344,1
229,control,22.0,15,1,494.7199821472168,494.7168827056885,1442,1
230,control,23.0,15,1,891.5309906005859,891.5278911590576,854,0
231,control,23.0,15,1,514.8999691009521,514.8990154266357,1111,1
232,control,24.0,8,1,736.393928527832,736.3901138305664,1468,1
233,control,25.0,15,1,692.3987865447998,692.396879196167,1243,1
234,control,26.0,15,1,594.0511226654053,594.048023223877,879,1
235,control,27.0,14,1,922.551155090332,922.5490093231201,892,1
236,control,28.0,17,1,524.8241424560547,524.8210430145264,922,1
237,control,29.0,17,1,891.5510177612305,891.5503025054932,1343,1
238,control,30.0,14,0,989.3848896026611,989.3839359283447,881,1
239,control,5.0,17,1,98.77705574035645,495.1000213623047,1357,1
240,control,6.0,8,0,98.85787963867188,492.43688583374023,1268,1
241,control,7.0,8,1,99.06506538391113,714.8740291595459,1270,1
242,control,8.0,8,1,95.96610069274902,624.3200302124023,1467,1
243,control,9.0,11,1,198.68087768554688,593.0290222167969,1135,1
244,control,10.0,8,1,498.87728691101074,498.8710880279541,1026,1
245,control,11.0,14,1,592.1390056610107,592.1351909637451,1094,1
246,control,12.0,18,1,625.0321865081787,625.0300407409668,1425,1
247,control,13.0,14,1,596.203088760376,596.2011814117432,1357,1
248,control,14.0,8,0,791.7940616607666,791.7919158935547,1008,1
249,control,15.0,15,1,779.9339294433594,779.932975769043,900,1
250,control,16.0,11,1,685.0321292877197,685.0309371948242,1104,1
251,control,17.0,8,1,494.3838119506836,494.3819046020508,1224,1
252,control,18.0,12,1,493.65973472595215,493.6549663543701,1120,1
253,control,19.0,14,1,580.4381370544434,580.4369449615479,1331,1
254,control,20.0,11,1,681.2870502471924,681.2858581542969,1366,1
255,control,21.0,12,1,494.4319725036621,494.4291114807129,1476,1
256,control,22.0,14,1,629.3346881866455,629.3320655822754,1178,1
257,control,23.0,14,1,689.6710395812988,689.6681785583496,1013,1
258,control,24.0,8,0,899.8849391937256,899.8818397521973,991,1
259,control,25.0,15,1,1980.0329208374023,1980.0279140472412,1431,1
260,control,26.0,14,1,583.3909511566162,583.3899974822998,1073,1
261,control,27.0,12,0,894.9759006500244,894.9730396270752,1036,1
262,control,28.0,15,1,928.5576343536377,928.5550117492676,1041,1
263,control,29.0,17,1,689.932107925415,689.9268627166748,865,1
264,control,30.0,17,0,910.4766845703125,910.4759693145752,1109,1
265,control,5.0,15,1,99.24507141113281,681.1978816986084,1041,1
266,control,6.0,11,1,99.19214248657227,593.947172164917,1033,1
267,control,7.0,5,1,231.0032844543457,824.4192600250244,1396,1
268,control,8.0,5,1,1308.6979389190674,1308.696985244751,1349,1
269,control,9.0,11,1,99.2131233215332,593.684196472168,1377,1
270,control,10.0,5,1,726.5489101409912,726.546049118042,954,1
271,control,11.0,14,1,491.98293685913086,491.9748306274414,1015,1
272,control,12.0,17,1,582.5541019439697,582.5541019439697,1385,1
273,control,13.0,14,1,592.7262306213379,592.7181243896484,807,1
274,control,14.0,11,1,616.6179180145264,616.61696434021,1045,1
275,control,15.0,14,1,987.3099327087402,987.307071685791,892,1
276,control,16.0,11,1,690.3200149536133,690.3181076049805,850,1
277,control,17.0,5,1,1023.0939388275146,1023.0908393859863,1275,1
278,control,18.0,12,1,627.208948135376,627.2060871124268,926,1
279,control,19.0,12,1,527.4648666381836,527.4622440338135,1226,1
280,control,20.0,11,1,793.4000492095947,793.4000492095947,1251,1
281,control,21.0,12,1,1010.5197429656982,1010.5190277099609,1194,1
282,control,22.0,14,1,494.64917182922363,494.6479797363281,826,1
283,control,23.0,14,0,394.58608627319336,394.578218460083,1364,1
284,control,24.0,11,1,692.1041011810303,692.0950412750244,895,1
285,control,25.0,14,1,725.2318859100342,725.2297401428223,1304,1
286,control,26.0,14,1,1286.6601943969727,1286.6592407226562,1391,1
287,control,27.0,14,1,592.764139175415,592.7600860595703,1072,1
288,control,28.0,15,1,494.46678161621094,494.4620132446289,1057,1
289,control,29.0,15,1,593.0221080780029,593.0171012878418,820,1
290,control,30.0,18,1,583.7588310241699,583.7578773498535,1224,1
291,control,5.0,15,1,99.80297088623047,516.0629749298096,997,1
292,control,6.0,11,1,99.20477867126465,483.49905014038086,1210,1
293,control,7.0,5,1,240.51189422607422,438.5337829589844,1211,1
294,control,8.0,5,1,901.5779495239258,901.5722274780273,1382,1
295,control,9.0,9,1,595.1821804046631,595.1790809631348,901,1
296,control,10.0,5,1,692.4269199371338,692.4228668212891,1477,1
297,control,11.0,12,1,494.58909034729004,494.5840835571289,1171,1
298,control,12.0,17,1,505.33413887023926,505.33199310302734,898,1
299,control,13.0,12,1,1220.094919204712,1220.0932502746582,1473,1
300,control,14.0,11,1,731.7161560058594,731.713056564331,1355,1
301,control,15.0,14,1,624.6788501739502,624.6740818023682,1257,1
302,control,16.0,8,0,879.5359134674072,879.5349597930908,1238,1
303,control,17.0,5,1,691.7819976806641,691.7791366577148,1026,1
304,control,18.0,11,1,606.6367626190186,606.6339015960693,1026,1
305,control,19.0,12,1,492.65503883361816,492.65003204345703,818,1
306,control,20.0,9,1,495.1322078704834,495.1310157775879,1040,1
307,control,21.0,11,1,427.64973640441895,427.64902114868164,935,1
308,control,22.0,12,1,580.2609920501709,580.2597999572754,1140,1
309,control,23.0,15,0,991.6858673095703,991.6839599609375,895,1
310,control,24.0,11,1,592.8120613098145,592.8099155426025,1182,1
311,control,25.0,14,1,583.5120677947998,583.5111141204834,1341,1
312,control,26.0,12,1,523.8621234893799,523.8592624664307,1410,1
313,control,27.0,14,1,723.121166229248,723.1171131134033,980,1
314,control,28.0,14,1,889.3160820007324,889.307975769043,891,1
315,control,29.0,15,1,889.2669677734375,889.2629146575928,837,1
316,control,30.0,18,1,1100.0559329986572,1100.0537872314453,859,1
317,control,5.0,14,1,99.08485412597656,493.09396743774414,917,1
318,control,6.0,9,1,99.2429256439209,496.65093421936035,1295,1
319,control,7.0,2,0,198.0760097503662,1495.1791763305664,835,1
320,control,8.0,2,0,298.5808849334717,800.8089065551758,883,1
321,control,9.0,9,1,595.2389240264893,595.23606300354,1385,1
322,control,10.0,2,1,98.95801544189453,1000.032901763916,892,1
323,control,11.0,12,1,592.383861541748,592.3757553100586,1436,1
324,control,12.0,15,1,703.4361362457275,703.4332752227783,865,1
325,control,13.0,12,1,592.9148197174072,592.9117202758789,1213,1
326,control,14.0,9,1,497.70212173461914,497.6990222930908,891,1
327,control,15.0,12,1,437.9770755767822,437.9730224609375,1070,1
328,control,16.0,11,1,494.7829246520996,494.7817325592041,843,1
329,control,17.0,2,0,1903.170108795166,1903.1691551208496,871,1
330,control,18.0,11,1,494.47083473205566,494.46582794189453,1317,1
331,control,19.0,11,1,591.9790267944336,591.973066329956,1366,1
332,control,20.0,9,1,596.5919494628906,596.5890884399414,1410,1
333,control,21.0,11,1,506.7410469055176,506.73794746398926,1110,1
334,control,22.0,12,1,531.005859375,531.0027599334717,854,1
335,control,23.0,17,1,977.2160053253174,977.215051651001,1161,1
336,control,24.0,9,1,702.8071880340576,702.8043270111084,1017,1
337,control,25.0,12,1,593.724250793457,593.7230587005615,1233,1
338,control,26.0,12,0,791.3188934326172,791.3129329681396,935,1
339,control,27.0,13,1,593.9960479736328,593.9919948577881,1086,1
340,control,28.0,14,1,592.4410820007324,592.4279689788818,1393,1
341,control,29.0,14,0,813.8740062713623,813.8728141784668,1009,1
342,control,30.0,17,0,590.7671451568604,590.764045715332,847,1
343,control,5.0,14,1,596.98486328125,596.9820022583008,1315,1
344,control,6.0,9,1,296.4000701904297,492.3229217529297,1125,1
345,control,7.0,5,1,132.13109970092773,627.0270347595215,1080,1
346,control,8.0,5,0,692.8431987762451,692.8420066833496,1076,1
347,control,9.0,8,1,493.3292865753174,493.32618713378906,1164,1
348,control,10.0,2,0,1187.4339580535889,1187.425136566162,1493,1
349,control,11.0,11,1,495.7718849182129,495.7709312438965,1495,1
350,control,12.0,15,1,495.70584297180176,495.6948757171631,1265,1
351,control,13.0,11,1,594.2161083221436,594.2132472991943,929,1
352,control,14.0,9,1,494.17591094970703,494.1709041595459,1237,1
353,control,15.0,12,1,690.5901432037354,690.587043762207,1217,1
354,control,16.0,11,0,713.0739688873291,713.0730152130127,1487,1
355,control,17.0,5,1,899.590015411377,899.5881080627441,804,1
356,control,18.0,9,1,591.8259620666504,591.8228626251221,1414,1
357,control,19.0,11,1,802.8380870819092,802.8359413146973,1139,1
358,control,20.0,8,0,823.5530853271484,823.5492706298828,1197,1
359,control,21.0,9,0,693.6562061309814,693.6500072479248,1021,1
360,control,22.0,11,1,494.39096450805664,494.387149810791,910,1
361,control,23.0,17,1,592.9279327392578,592.9231643676758,912,1
362,control,24.0,9,1,1096.2679386138916,1096.2650775909424,1126,1
363,control,25.0,12,0,1119.352102279663,1119.3459033966064,1049,1
364,control,26.0,14,1,594.8500633239746,594.8448181152344,871,1
365,control,27.0,13,1,813.1208419799805,813.1198883056641,1366,1
366,control,28.0,12,1,427.86097526550293,427.8581142425537,1197,1
367,control,29.0,15,1,885.8397006988525,885.8380317687988,1125,1
368,control,30.0,18,1,779.9568176269531,779.9558639526367,1316,1
369,control,5.0,12,1,99.87711906433105,495.47290802001953,1326,1
370,control,6.0,8,1,97.63717651367188,482.91492462158203,1488,1
371,control,7.0,5,1,98.20699691772461,495.4369068145752,1030,1
372,control,8.0,8,1,397.2899913787842,397.2890377044678,1481,1
373,control,9.0,8,1,497.22814559936523,497.2240924835205,811,1
374,control,10.0,5,1,1385.9689235687256,1385.962963104248,853,1
375,control,11.0,11,1,494.74501609802246,494.7400093078613,1101,1
376,control,12.0,14,1,492.28596687316895,492.2780990600586,996,1
377,control,13.0,11,1,596.1527824401855,596.1518287658691,1466,1
378,control,14.0,8,1,1512.9671096801758,1512.9642486572266,1169,1
379,control,15.0,11,1,624.316930770874,624.3147850036621,1402,1
380,control,16.0,12,1,592.4220085144043,592.4150943756104,1374,1
381,control,17.0,5,1,1004.1558742523193,1004.1511058807373,1100,1
382,control,18.0,9,1,505.4347515106201,505.4299831390381,1215,1
383,control,19.0,9,1,999.985933303833,999.9828338623047,1194,1
384,control,20.0,9,1,593.9719676971436,593.9662456512451,1360,1
385,control,21.0,11,1,692.7947998046875,692.78883934021,1289,1
386,control,22.0,11,1,988.1770610809326,988.1739616394043,969,1
387,control,23.0,16,0,896.2910175323486,896.2898254394531,818,1
388,control,24.0,8,0,790.6811237335205,790.6770706176758,1196,1
389,control,25.0,14,0,986.2411022186279,986.2401485443115,913,1
390,control,26.0,14,1,591.0201072692871,591.0153388977051,1471,1
1,quadbright,5.0,20,1,106.96196556091309,995.851993560791,1351,1
2,quadbright,6.0,20,1,197.62587547302246,834.3527317047119,1147,1
3,quadbright,7.0,20,1,197.7400779724121,792.449951171875,908,1
4,quadbright,8.0,20,1,800.865650177002,800.8639812469482,1025,1
5,quadbright,9.0,20,1,584.4748020172119,584.4738483428955,1049,1
6,quadbright,10.0,20,1,1012.2330188751221,1012.2311115264893,1421,1
7,quadbright,11.0,20,1,582.5867652893066,582.5858116149902,859,1
8,quadbright,12.0,20,1,781.5778255462646,781.5768718719482,1134,1
9,quadbright,13.0,20,1,594.527006149292,594.527006149292,1462,1
10,quadbright,14.0,20,1,583.0740928649902,583.0729007720947,1151,1
11,quadbright,15.0,20,1,494.11773681640625,494.1089153289795,986,1
12,quadbright,16.0,20,1,503.2811164855957,503.2789707183838,1246,1
13,quadbright,17.0,20,1,692.9793357849121,692.9781436920166,942,1
14,quadbright,18.0,20,1,702.476978302002,702.4738788604736,1471,1
15,quadbright,19.0,20,1,583.8589668273926,583.8580131530762,1124,1
16,quadbright,20.0,20,1,682.4331283569336,682.4309825897217,1406,1
17,quadbright,21.0,20,1,835.7899188995361,835.7868194580078,956,1
18,quadbright,22.0,20,1,725.471019744873,725.4648208618164,1168,1
19,quadbright,23.0,20,1,783.1060886383057,783.1048965454102,1423,1
20,quadbright,24.0,20,1,695.6491470336914,695.6453323364258,1250,1
21,quadbright,25.0,20,1,880.2213668823242,880.2182674407959,1005,1
22,quadbright,26.0,20,1,791.2697792053223,791.2676334381104,1442,1
23,quadbright,27.0,20,1,988.929033279419,988.9280796051025,1287,1
24,quadbright,28.0,20,0,2697.4880695343018,2697.486162185669,1160,1
25,quadbright,29.0,20,0,2412.5819206237793,2412.5802516937256,982,1
26,quadbright,30.0,20,0,1774.784803390503,1774.7819423675537,1009,1
27,quadbright,5.0,20,1,187.57915496826172,716.083288192749,1427,1
28,quadbright,6.0,20,1,98.33431243896484,593.1260585784912,1095,1
29,quadbright,7.0,20,1,200.08325576782227,781.4371585845947,1420,1
30,quadbright,8.0,20,1,198.1501579284668,792.1099662780762,1102,1
31,quadbright,9.0,20,1,626.2507438659668,626.2438297271729,1346,1
32,quadbright,10.0,20,1,615.2017116546631,615.2009963989258,1322,1
33,quadbright,11.0,20,1,792.3941612243652,792.391300201416,1496,1
34,quadbright,12.0,20,1,618.506908416748,618.5059547424316,1498,1
35,quadbright,13.0,20,1,723.7896919250488,723.7868309020996,1075,1
36,quadbright,14.0,20,1,492.85387992858887,492.85197257995605,1466,1
37,quadbright,15.0,20,1,692.1970844268799,692.1901702880859,1051,1
38,quadbright,16.0,20,1,484.7979545593262,484.79676246643066,1328,1
39,quadbright,17.0,20,1,782.4580669403076,782.4568748474121,1261,1
40,quadbright,18.0,20,1,592.1070575714111,592.1039581298828,1370,1
41,quadbright,19.0,20,1,803.8420677185059,803.8389682769775,968,1
42,quadbright,20.0,20,1,781.3026905059814,781.3019752502441,1056,1
43,quadbright,21.0,20,1,880.7637691497803,880.7628154754639,1411,1
44,quadbright,22.0,20,1,493.89100074768066,493.88694763183594,1081,1
45,quadbright,23.0,20,1,583.3611488342285,583.3611488342285,1254,1
46,quadbright,24.0,20,0,1783.9758396148682,1783.9736938476562,1210,1
47,quadbright,25.0,20,0,1111.2821102142334,1111.281156539917,1238,1
48,quadbright,26.0,20,1,2367.9168224334717,2367.9158687591553,1295,1
49,quadbright,27.0,20,1,1890.1069164276123,1890.1031017303467,1051,1
50,quadbright,28.0,23,0,1910.118818283081,1910.1147651672363,1310,1
51,quadbright,29.0,23,1,1575.0091075897217,1575.0081539154053,857,1
52,quadbright,30.0,23,1,1428.4510612487793,1428.4489154815674,1478,1
53,quadbright,5.0,17,1,99.31707382202148,697.5648403167725,1393,1
54,quadbright,6.0,17,1,99.13396835327148,492.9039478302002,904,1
55,quadbright,7.0,17,1,197.32928276062012,593.4321880340576,1083,1
56,quadbright,8.0,17,1,791.6920185089111,791.6879653930664,822,1
57,quadbright,9.0,17,1,197.0219612121582,724.3950366973877,991,1
58,quadbright,10.0,17,1,636.218786239624,636.2147331237793,1150,1
59,quadbright,11.0,17,1,980.4680347442627,980.4680347442627,1206,1
60,quadbright,12.0,17,1,499.1641044616699,499.1610050201416,1343,1
61,quadbright,13.0,17,1,499.6659755706787,499.6631145477295,1168,1
62,quadbright,14.0,17,1,682.3980808258057,682.3968887329102,1335,1
63,quadbright,15.0,17,1,591.8030738830566,591.7990207672119,1470,1
64,quadbright,16.0,17,1,1002.2561550140381,1002.2542476654053,1445,1
65,quadbright,17.0,17,1,692.0609474182129,692.0578479766846,1231,1
66,quadbright,18.0,17,1,1813.6467933654785,1813.6389255523682,1028,1
67,quadbright,19.0,17,1,1375.6160736083984,1375.615119934082,1415,1
68,quadbright,20.0,17,1,788.9089584350586,788.9049053192139,910,1
69,quadbright,21.0,17,1,706.787109375,706.7840099334717,1396,1
70,quadbright,22.0,17,1,690.9599304199219,690.9580230712891,1063,1
71,quadbright,23.0,17,0,1376.2550354003906,1376.2540817260742,865,1
72,quadbright,24.0,23,0,982.5100898742676,982.5079441070557,1016,1
73,quadbright,25.0,23,1,780.4622650146484,780.4601192474365,1363,1
74,quadbright,26.0,17,1,1573.2600688934326,1573.2591152191162,1162,1
75,quadbright,27.0,17,0,1285.3813171386719,1285.377025604248,1007,1
76,quadbright,28.0,26,1,2101.0990142822266,2101.09806060791,982,1
77,quadbright,29.0,23,0,979.5961380004883,979.5920848846436,1150,1
78,quadbright,30.0,23,0,2071.474075317383,2071.4731216430664,806,1
79,quadbright,5.0,17,1,198.38786125183105,723.1221199035645,1283,1
80,quadbright,6.0,17,1,98.83880615234375,484.17115211486816,1177,1
81,quadbright,7.0,17,1,99.43294525146484,486.66882514953613,1240,1
82,quadbright,8.0,17,1,485.96692085266113,485.9657287597656,1367,1
83,quadbright,9.0,17,1,98.14810752868652,979.3529510498047,1205,1
84,quadbright,10.0,17,1,593.4369564056396,593.4321880340576,1459,1
85,quadbright,11.0,17,1,790.1990413665771,790.1949882507324,968,1
86,quadbright,12.0,17,1,704.3130397796631,704.3101787567139,1297,1
87,quadbright,13.0,17,1,593.3959484100342,593.3949947357178,1220,1
88,quadbright,14.0,17,1,583.6420059204102,583.6408138275146,1454,1
89,quadbright,15.0,17,1,583.9850902557373,583.9829444885254,1069,1
90,quadbright,16.0,17,1,495.6858158111572,495.6851005554199,1122,1
91,quadbright,17.0,17,1,591.2308692932129,591.2299156188965,1433,1
92,quadbright,18.0,17,1,626.2290477752686,626.2269020080566,1245,1
93,quadbright,19.0,17,1,1123.2919692993164,1123.2900619506836,957,1
94,quadbright,20.0,17,1,692.1818256378174,692.1799182891846,1274,1
95,quadbright,21.0,17,1,988.2211685180664,988.2180690765381,1446,1
96,quadbright,22.0,17,1,1581.9880962371826,1581.9871425628662,946,1
97,quadbright,23.0,20,1,1288.011074066162,1288.0079746246338,895,1
98,quadbright,24.0,26,1,1021.8560695648193,1021.8520164489746,900,1
99,quadbright,25.0,23,1,1088.2997512817383,1088.2980823516846,1383,1
100,quadbright,26.0,17,0,1376.605749130249,1376.6047954559326,1171,1
101,quadbright,27.0,20,1,790.600061416626,790.5960083007812,1139,1
102,quadbright,28.0,26,1,682.7518939971924,682.750940322876,1144,1
103,quadbright,29.0,26,0,1398.2760906219482,1398.27299118042,1500,1
104,quadbright,30.0,26,1,792.7088737487793,792.705774307251,1405,1
105,quadbright,5.0,14,1,198.380708694458,923.1889247894287,862,1
106,quadbright,6.0,14,1,231.23526573181152,2497.1530437469482,959,1
107,quadbright,7.0,14,1,196.2270736694336,523.4041213989258,1358,1
108,quadbright,8.0,14,1,635.6549263000488,635.6518268585205,963,1
109,quadbright,9.0,14,1,625.1721382141113,625.169038772583,816,1
110,quadbright,10.0,14,1,494.0190315246582,494.01307106018066,1443,1
111,quadbright,11.0,14,1,583.7171077728271,583.7161540985107,1246,1
112,quadbright,12.0,14,1,795.3667640686035,795.3636646270752,1210,1
113,quadbright,13.0,14,1,816.0481452941895,816.046953201294,1111,1
114,quadbright,14.0,14,1,593.56689453125,593.5649871826172,839,1
115,quadbright,15.0,14,1,491.7137622833252,491.70875549316406,1380,1
116,quadbright,16.0,14,1,593.3640003204346,593.360185623169,1188,1
117,quadbright,17.0,14,1,694.9141025543213,694.9112415313721,1104,1
118,quadbright,18.0,14,1,790.895938873291,790.8940315246582,1000,0
119,quadbright,18.0,14,1,1035.5777740478516,1035.5730056762695,1011,0
120,quadbright,18.0,14,1,1515.3820514678955,1515.376091003418,832,1
121,quadbright,19.0,14,0,1505.1379203796387,1505.1369667053223,987,1
122,quadbright,20.0,14,1,990.21315574646,990.2088642120361,1322,1
123,quadbright,21.0,14,1,902.7578830718994,902.7550220489502,802,1
124,quadbright,22.0,14,0,1078.1199932098389,1078.1188011169434,1463,1
125,quadbright,23.0,20,1,593.1088924407959,593.1072235107422,1166,1
126,quadbright,24.0,26,1,791.8107509613037,791.8107509613037,1124,1
127,quadbright,25.0,21,1,793.8821315765381,793.8790321350098,824,1
128,quadbright,26.0,20,1,790.9078598022461,790.9047603607178,1021,1
129,quadbright,27.0,20,1,989.508867263794,989.5069599151611,1465,1
130,quadbright,28.0,23,1,794.4669723510742,794.4638729095459,884,1
131,quadbright,29.0,27,0,1915.6160354614258,1915.6129360198975,1139,1
132,quadbright,30.0,26,1,1913.1429195404053,1913.1340980529785,1083,1
133,quadbright,5.0,14,1,197.91221618652344,632.9081058502197,1084,1
134,quadbright,6.0,14,1,296.91100120544434,592.5281047821045,1405,1
135,quadbright,7.0,14,1,584.8860740661621,584.8851203918457,1353,1
136,quadbright,8.0,14,1,197.59893417358398,788.4671688079834,1356,1
137,quadbright,9.0,14,1,197.7992057800293,990.8361434936523,1244,1
138,quadbright,10.0,14,1,790.665864944458,790.6596660614014,1219,1
139,quadbright,11.0,14,1,988.7690544128418,988.7650012969971,913,1
140,quadbright,12.0,14,1,790.7538414001465,790.7519340515137,824,1
141,quadbright,13.0,14,1,791.6178703308105,791.6140556335449,984,1
142,quadbright,14.0,14,1,824.2568969726562,824.2530822753906,1165,1
143,quadbright,15.0,14,0,1506.6089630126953,1506.608009338379,1385,1
144,quadbright,16.0,14,1,992.0918941497803,992.0897483825684,1475,1
145,quadbright,17.0,14,1,582.0250511169434,582.024097442627,1316,1
146,quadbright,18.0,14,1,602.6110649108887,602.6091575622559,1171,1
147,quadbright,19.0,17,0,1284.8408222198486,1284.8360538482666,956,1
148,quadbright,20.0,14,1,780.357837677002,780.35569190979,920,1
149,quadbright,21.0,14,1,989.0451431274414,989.0420436859131,1080,1
150,quadbright,22.0,17,1,1177.664041519165,1177.6628494262695,1151,1
151,quadbright,23.0,18,1,715.2090072631836,715.2078151702881,1407,1
152,quadbright,24.0,24,1,714.561939239502,714.5600318908691,1270,1
153,quadbright,25.0,21,1,791.085958480835,791.0809516906738,1385,1
154,quadbright,26.0,20,1,1472.985029220581,1472.9840755462646,870,1
155,quadbright,27.0,18,1,690.7119750976562,690.7057762145996,1217,1
156,quadbright,28.0,23,0,1582.0658206939697,1582.061767578125,808,1
157,quadbright,29.0,29,1,790.3716564178467,790.3647422790527,1236,1
158,quadbright,30.0,24,1,794.3518161773682,794.3496704101562,1449,1
159,quadbright,5.0,11,1,691.2567615509033,691.2529468536377,1319,1
160,quadbright,6.0,11,1,101.22418403625488,505.89513778686523,833,1
161,quadbright,7.0,11,1,97.6250171661377,492.7332401275635,1317,1
162,quadbright,8.0,11,1,99.35998916625977,703.4311294555664,886,1
163,quadbright,9.0,11,1,585.076093673706,585.0751399993896,1277,1
164,quadbright,10.0,11,1,98.45805168151855,592.1101570129395,1428,1
165,quadbright,11.0,11,1,595.099925994873,595.0970649719238,1223,1
166,quadbright,12.0,11,0,1307.6589107513428,1307.6579570770264,1083,1
167,quadbright,13.0,11,1,999.9873638153076,999.9861717224121,831,1
168,quadbright,14.0,11,1,791.8970584869385,791.8930053710938,879,1
169,quadbright,15.0,17,1,791.511058807373,791.5091514587402,868,1
170,quadbright,16.0,11,1,1507.0109367370605,1507.0099830627441,1015,1
171,quadbright,17.0,11,1,595.9219932556152,595.9188938140869,1303,1
172,quadbright,18.0,11,1,595.2599048614502,595.257043838501,872,1
173,quadbright,19.0,20,1,782.7398777008057,782.7389240264893,817,1
174,quadbright,20.0,11,1,781.440019607544,781.4388275146484,1343,1
175,quadbright,21.0,11,1,526.9761085510254,526.9749164581299,1077,1
176,quadbright,22.0,17,1,1001.1897087097168,1001.187801361084,1241,1
177,quadbright,23.0,18,0,1187.540054321289,1187.5369548797607,817,1
178,quadbright,24.0,24,1,496.63591384887695,496.6311454772949,957,1
179,quadbright,25.0,20,1,788.1917953491211,788.1908416748047,1445,1
180,quadbright,26.0,18,1,624.4480609893799,624.4401931762695,1151,1
181,quadbright,27.0,18,1,1176.4249801635742,1176.4237880706787,910,1
182,quadbright,28.0,26,1,691.7119026184082,691.7099952697754,1186,1
183,quadbright,29.0,29,1,692.7030086517334,692.7011013031006,886,1
184,quadbright,30.0,24,1,594.444990158081,594.4440364837646,1422,1
185,quadbright,5.0,11,1,135.1480484008789,2806.687355041504,861,0
186,quadbright,5.0,11,1,98.98018836975098,604.7244071960449,1339,1
187,quadbright,6.0,11,1,97.9151725769043,594.325065612793,967,1
188,quadbright,7.0,11,1,98.96302223205566,492.6321506500244,881,1
189,quadbright,8.0,11,1,98.92702102661133,492.5389289855957,998,1
190,quadbright,9.0,11,1,594.357967376709,594.3570137023926,941,1
191,quadbright,10.0,11,1,793.9441204071045,793.9410209655762,848,1
192,quadbright,11.0,11,1,495.3579902648926,495.3498840332031,1025,1
193,quadbright,12.0,14,1,494.20905113220215,494.19498443603516,1404,1
194,quadbright,13.0,11,1,593.0323600769043,593.029260635376,1112,1
195,quadbright,14.0,11,1,494.5108890533447,494.5080280303955,1095,1
196,quadbright,15.0,17,1,498.2032775878906,498.2001781463623,1430,1
197,quadbright,16.0,11,1,791.2619113922119,791.259765625,1365,1
198,quadbright,17.0,11,1,1109.3981266021729,1109.3971729278564,959,1
199,quadbright,18.0,11,1,980.0059795379639,980.004072189331,1193,1
200,quadbright,19.0,20,1,791.6779518127441,791.6748523712158,1244,1
201,quadbright,20.0,11,0,1308.7859153747559,1308.7821006774902,1224,1
202,quadbright,21.0,11,1,977.8568744659424,977.8549671173096,1075,1
203,quadbright,22.0,15,1,781.0001373291016,780.9991836547852,1018,1
204,quadbright,23.0,20,1,789.8910045623779,789.8879051208496,1128,1
205,quadbright,24.0,23,1,595.5829620361328,595.5801010131836,938,1
206,quadbright,25.0,20,0,893.7749862670898,893.773078918457,808,1
207,quadbright,26.0,18,1,1605.5078506469727,1605.5071353912354,1189,1
208,quadbright,27.0,17,1,627.993106842041,627.9902458190918,1410,1
209,quadbright,28.0,26,1,692.9872035980225,692.986249923706,1440,1
210,quadbright,29.0,27,1,728.0008792877197,727.9977798461914,1036,1
211,quadbright,30.0,23,1,912.6889705657959,912.6880168914795,1064,1
212,quadbright,5.0,8,1,99.29895401000977,1002.3820400238037,1072,1
213,quadbright,6.0,8,1,99.75624084472656,1289.525032043457,1097,1
214,quadbright,7.0,8,1,99.32398796081543,593.5337543487549,1442,1
215,quadbright,8.0,8,1,492.6800727844238,492.6762580871582,1357,1
216,quadbright,9.0,8,1,595.980167388916,595.9751605987549,1315,1
217,quadbright,10.0,8,1,977.210283279419,977.2090911865234,1032,1
218,quadbright,11.0,8,1,483.2470417022705,483.2460880279541,1331,1
219,quadbright,12.0,14,1,392.41504669189453,392.4102783203125,1375,1
220,quadbright,13.0,8,0,790.031909942627,790.0309562683105,921,1
221,quadbright,14.0,8,1,779.6809673309326,779.6800136566162,1198,1
222,quadbright,15.0,15,1,591.3529396057129,591.3488864898682,1165,1
223,quadbright,16.0,8,1,1209.5918655395508,1209.5906734466553,988,1
224,quadbright,17.0,8,0,791.846752166748,791.8426990509033,1454,1
225,quadbright,18.0,8,1,698.5962390899658,698.5940933227539,945,1
226,quadbright,19.0,18,0,889.2972469329834,889.2929553985596,840,1
227,quadbright,20.0,14,1,593.8999652862549,593.8930511474609,1011,1
228,quadbright,21.0,8,0,901.0281562805176,901.0188579559326,1388,1
229,quadbright,22.0,15,1,395.305871963501,395.2970504760742,1331,1
230,quadbright,23.0,20,1,591.7749404907227,591.771125793457,1079,1
231,quadbright,24.0,23,1,593.3418273925781,593.3380126953125,1498,1
232,quadbright,25.0,21,1,595.3028202056885,595.2959060668945,1034,1
233,quadbright,26.0,17,1,691.1511421203613,691.1461353302002,1022,1
234,quadbright,27.0,17,1,634.8001956939697,634.7980499267578,858,1
235,quadbright,28.0,24,1,678.9529323577881,678.9519786834717,955,1
236,quadbright,29.0,27,1,497.0979690551758,497.09486961364746,1376,1
237,quadbright,30.0,23,0,924.9589443206787,924.9570369720459,821,1
238,quadbright,5.0,8,1,780.6921005249023,780.6909084320068,1099,1
239,quadbright,6.0,8,1,97.20611572265625,680.5281639099121,1102,1
240,quadbright,7.0,8,1,99.15423393249512,803.347110748291,1211,1
241,quadbright,8.0,8,1,593.2450294494629,593.2438373565674,1307,1
242,quadbright,9.0,8,1,592.9770469665527,592.9739475250244,1360,1
243,quadbright,10.0,8,1,494.74620819091797,494.74501609802246,884,1
244,quadbright,11.0,8,1,494.06886100769043,494.0609931945801,1269,1
245,quadbright,12.0,12,1,692.0678615570068,692.0638084411621,992,1
246,quadbright,13.0,11,1,624.9110698699951,624.906063079834,925,1
247,quadbright,14.0,8,0,1583.333969116211,1583.3320617675781,881,1
248,quadbright,15.0,15,1,597.8150367736816,597.8131294250488,1137,0
249,quadbright,15.0,15,1,693.1848526000977,693.1819915771484,1253,1
250,quadbright,16.0,8,1,891.0708427429199,891.0689353942871,987,1
251,quadbright,17.0,11,1,736.0608577728271,736.0589504241943,957,1
252,quadbright,18.0,8,1,1220.1929092407227,1220.1881408691406,1402,1
253,quadbright,19.0,20,1,792.4988269805908,792.4962043762207,1145,1
254,quadbright,20.0,14,0,801.8491268157959,801.8479347229004,967,1
255,quadbright,21.0,11,1,1219.677209854126,1219.6722030639648,1480,1
256,quadbright,22.0,14,1,724.5147228240967,724.510908126831,1348,1
257,quadbright,23.0,19,1,595.5560207366943,595.5538749694824,844,1
258,quadbright,24.0,21,1,594.1770076751709,594.1741466522217,1140,1
259,quadbright,25.0,21,1,494.0001964569092,493.99805068969727,921,1
260,quadbright,26.0,17,1,592.8199291229248,592.818021774292,1085,1
261,quadbright,27.0,15,1,802.800178527832,802.7970790863037,1406,1
262,quadbright,28.0,24,1,890.7918930053711,890.7871246337891,879,1
263,quadbright,29.0,26,1,494.0059185028076,494.0040111541748,1426,1
264,quadbright,30.0,24,1,591.6628837585449,591.6609764099121,1027,1
265,quadbright,5.0,5,1,231.3821315765381,1112.287998199463,1040,1
266,quadbright,6.0,5,1,505.76186180114746,505.76019287109375,1237,1
267,quadbright,7.0,5,0,1507.1961879730225,1507.195234298706,1487,1
268,quadbright,8.0,5,1,613.7480735778809,613.7471199035645,1411,1
269,quadbright,9.0,5,1,1190.1788711547852,1190.176010131836,1358,1
270,quadbright,10.0,5,0,1318.2411193847656,1318.2389736175537,1112,1
271,quadbright,11.0,5,0,1418.2558059692383,1418.2538986206055,1428,1
272,quadbright,12.0,12,1,288.646936416626,585.5648517608643,1374,1
273,quadbright,13.0,11,1,1318.3040618896484,1318.3009624481201,1398,1
274,quadbright,14.0,11,1,1308.3887100219727,1308.3879947662354,1242,1
275,quadbright,15.0,14,1,593.9500331878662,593.9490795135498,984,1
276,quadbright,16.0,5,1,889.880895614624,889.8770809173584,989,1
277,quadbright,17.0,11,1,594.9218273162842,594.9177742004395,1162,1
278,quadbright,18.0,5,1,595.7372188568115,595.7310199737549,1453,1
279,quadbright,19.0,20,0,495.4988956451416,495.4957962036133,1309,1
280,quadbright,20.0,15,0,901.65114402771,901.648998260498,1073,1
281,quadbright,21.0,11,0,901.2041091918945,901.1969566345215,991,1
282,quadbright,22.0,14,1,693.6099529266357,693.6008930206299,1086,0
283,quadbright,22.0,14,1,823.2851028442383,823.2810497283936,1480,1
284,quadbright,23.0,19,1,800.8790016174316,800.8759021759033,1403,1
285,quadbright,24.0,21,1,680.5918216705322,680.5908679962158,1479,1
286,quadbright,25.0,20,1,691.3528442382812,691.3506984710693,1113,1
287,quadbright,26.0,15,1,825.6630897521973,825.6609439849854,959,1
288,quadbright,27.0,15,1,1175.997018814087,1175.9958267211914,1174,1
289,quadbright,28.0,23,1,482.7229976654053,482.72204399108887,1128,1
290,quadbright,30.0,24,0,879.3437480926514,879.3418407440186,1272,1
291,quadbright,5.0,5,1,100.4188060760498,825.1171112060547,1114,1
292,quadbright,6.0,5,1,1020.0541019439697,1020.0510025024414,966,1
293,quadbright,7.0,8,1,779.84619140625,779.8449993133545,1378,1
294,quadbright,8.0,5,1,691.9300556182861,691.9291019439697,1413,1
295,quadbright,9.0,5,1,98.87886047363281,1198.3330249786377,970,1
296,quadbright,10.0,8,1,594.1169261932373,594.1162109375,1283,1
297,quadbright,11.0,8,1,393.2938575744629,393.2909965515137,1237,1
298,quadbright,12.0,11,1,494.0979480743408,494.0941333770752,1115,1
299,quadbright,13.0,9,1,1208.5978984832764,1208.5978984832764,1053,1
300,quadbright,14.0,11,1,594.0289497375488,594.027042388916,1399,1
301,quadbright,15.0,14,0,793.8268184661865,793.8258647918701,1137,1
302,quadbright,16.0,5,1,1000.8039474487305,1000.798225402832,1257,1
303,quadbright,17.0,9,0,979.1340827941895,979.133129119873,1404,1
304,quadbright,18.0,5,1,691.1628246307373,691.159725189209,951,1
305,quadbright,19.0,21,1,604.9621105194092,604.9580574035645,1173,1
306,quadbright,20.0,17,1,921.1571216583252,921.1502075195312,958,1
307,quadbright,21.0,12,0,1178.2138347625732,1178.2128810882568,1329,1
308,quadbright,22.0,12,1,792.7761077880859,792.7742004394531,1373,1
309,quadbright,23.0,18,1,493.5629367828369,493.5569763183594,1429,1
310,quadbright,24.0,20,1,692.6040649414062,692.6019191741943,883,1
311,quadbright,25.0,20,1,593.8470363616943,593.8458442687988,1000,1
312,quadbright,26.0,15,1,692.9619312286377,692.9609775543213,922,1
313,quadbright,27.0,14,1,1088.3808135986328,1088.3760452270508,1141,1
314,quadbright,28.0,23,1,821.8979835510254,821.8948841094971,1389,1
315,quadbright,30.0,25,1,592.8850173950195,592.8797721862793,1377,1
316,quadbright,5.0,2,0,997.9739189147949,997.9720115661621,1374,1
317,quadbright,6.0,2,1,97.52583503723145,1019.9508666992188,971,1
318,quadbright,7.0,8,1,101.1049747467041,528.4321308135986,957,1
319,quadbright,8.0,2,1,100.31414031982422,834.0001106262207,1400,1
320,quadbright,9.0,2,1,98.70529174804688,1088.0200862884521,975,1
321,quadbright,10.0,8,1,493.70598793029785,493.70408058166504,1214,1
322,quadbright,11.0,8,1,494.3060874938965,494.30203437805176,1226,1
323,quadbright,12.0,11,1,728.5869121551514,728.5797595977783,1022,1
324,quadbright,13.0,9,1,625.1909732818604,625.1869201660156,1150,1
325,quadbright,14.0,9,1,1606.6770553588867,1606.6761016845703,1008,1
326,quadbright,15.0,15,1,525.7179737091064,525.7089138031006,1052,1
327,quadbright,16.0,2,0,1297.659158706665,1297.6570129394531,1442,1
328,quadbright,17.0,11,1,690.8612251281738,690.8590793609619,1305,1
329,quadbright,18.0,2,0,779.6950340270996,779.6931266784668,1368,1
330,quadbright,19.0,21,1,497.64299392700195,497.6389408111572,1103,1
331,quadbright,20.0,17,1,1090.3589725494385,1090.3570652008057,906,1
332,quadbright,21.0,14,1,879.0760040283203,879.0750503540039,1424,1
333,quadbright,22.0,12,1,691.9896602630615,691.9870376586914,964,1
334,quadbright,23.0,18,1,593.9850807189941,593.9838886260986,1260,1
335,quadbright,24.0,20,1,602.7650833129883,602.76198387146,907,1
336,quadbright,25.0,19,1,604.2470932006836,604.2382717132568,1457,1
337,quadbright,26.0,14,1,989.4020557403564,989.3972873687744,804,1
338,quadbright,27.0,14,1,889.3938064575195,889.3840312957764,1020,1
339,quadbright,28.0,21,1,690.208911895752,690.2070045471191,1421,1
340,quadbright,30.0,25,1,680.7551383972168,680.7541847229004,1186,1
341,quadbright,5.0,5,1,99.13492202758789,494.2810535430908,1035,1
342,quadbright,6.0,2,0,99.52783584594727,1176.4609813690186,1347,1
343,quadbright,7.0,6,1,100.4021167755127,581.9382667541504,1205,1
344,quadbright,8.0,2,1,922.2760200500488,922.2719669342041,867,1
345,quadbright,9.0,2,0,922.2440719604492,922.2421646118164,1212,1
346,quadbright,10.0,6,1,604.3999195098877,604.3951511383057,1478,1
347,quadbright,11.0,6,1,787.3618602752686,787.3568534851074,968,1
348,quadbright,12.0,9,0,990.2677536010742,990.2667999267578,1248,1
349,quadbright,13.0,8,1,988.577127456665,988.5697364807129,1041,1
350,quadbright,14.0,9,1,584.3319892883301,584.3310356140137,942,1
351,quadbright,15.0,15,1,583.5769176483154,583.5740566253662,1404,1
352,quadbright,16.0,5,1,692.3270225524902,692.3239231109619,984,1
353,quadbright,17.0,11,1,591.332197189331,591.3262367248535,1323,1
354,quadbright,18.0,5,0,929.7599792480469,929.7580718994141,1068,1
355,quadbright,19.0,20,1,493.6368465423584,493.62897872924805,900,1
356,quadbright,20.0,16,1,495.1901435852051,495.18823623657227,1029,1
357,quadbright,21.0,14,1,1385.3559494018555,1385.3540420532227,853,1
358,quadbright,22.0,11,1,823.9312171936035,823.9281177520752,1240,1
359,quadbright,23.0,17,1,528.0063152313232,528.0032157897949,1300,1
360,quadbright,24.0,18,1,1035.1219177246094,1035.1190567016602,956,1
361,quadbright,25.0,19,1,591.174840927124,591.170072555542,1490,1
362,quadbright,26.0,14,1,695.5041885375977,695.5020427703857,830,1
363,quadbright,27.0,12,0,792.1299934387207,792.1230792999268,1062,1
364,quadbright,28.0,21,1,599.534273147583,599.5321273803711,849,1
365,quadbright,30.0,24,1,690.7238960266113,690.7188892364502,1380,1
366,quadbright,5.0,5,1,98.76894950866699,890.9120559692383,1208,1
367,quadbright,6.0,5,0,890.7310962677002,890.7289505004883,905,1
368,quadbright,7.0,6,1,585.2408409118652,585.2398872375488,902,1
369,quadbright,8.0,1,1,1077.4831771850586,1077.481985092163,1292,1
370,quadbright,9.0,5,0,197.6618766784668,794.6059703826904,896,1
371,quadbright,10.0,6,1,681.1611652374268,681.1599731445312,889,1
372,quadbright,11.0,6,1,592.8270816802979,592.8249359130859,909,1
373,quadbright,12.0,11,1,496.9213008880615,496.9182014465332,1471,1
374,quadbright,13.0,8,1,1087.9018306732178,1087.8989696502686,912,1
375,quadbright,14.0,8,1,1307.6450824737549,1307.6438903808594,1346,1
376,quadbright,15.0,14,0,1317.530870437622,1317.5280094146729,972,1
377,quadbright,16.0,5,0,890.3007507324219,890.2959823608398,1289,1
378,quadbright,17.0,10,1,814.6288394927979,814.6266937255859,946,1
379,quadbright,18.0,8,0,1012.1352672576904,1012.1340751647949,1262,1
380,quadbright,19.0,20,1,627.9747486114502,627.9737949371338,960,1
381,quadbright,20.0,16,1,597.235918045044,597.2330570220947,1458,1
382,quadbright,21.0,13,1,901.9172191619873,901.9150733947754,1085,1
383,quadbright,22.0,11,1,694.155216217041,694.1509246826172,889,1
384,quadbright,23.0,17,1,713.3588790893555,713.3569717407227,1181,1
385,quadbright,24.0,18,1,791.6789054870605,791.6779518127441,802,1
386,quadbright,25.0,18,0,692.781925201416,692.7790641784668,891,1
387,quadbright,26.0,12,1,890.15793800354,890.1569843292236,1136,1
388,quadbright,27.0,14,0,791.0141944885254,791.0079956054688,891,1
389,quadbright,28.0,20,0,726.7413139343262,726.7382144927979,1372,1
390,quadbright,30.0,24,1,791.1550998687744,791.154146194458,857,1
