trial,condition,eccentricity,magnitude,correct,srt_ms,keyboard_rt_ms,pre_change_ms,valid
1,control,5.0,20,1,99.78079795837402,1979.421854019165,1294,1
2,control,6.0,20,1,97.14508056640625,592.38600730896,1126,1
3,control,7.0,20,1,132.66825675964355,559.3671798706055,1450,1
4,control,8.0,20,1,494.0009117126465,493.99781227111816,1121,1
5,control,9.0,20,1,99.05195236206055,527.8770923614502,1139,1
6,control,10.0,20,1,99.64299201965332,494.63796615600586,1314,1
7,control,11.0,20,1,593.1508541107178,593.146800994873,953,1
8,control,12.0,20,1,855.4427623748779,855.4401397705078,878,1
9,control,13.0,20,1,493.1917190551758,493.18981170654297,1220,1
10,control,14.0,20,1,492.68484115600586,492.68269538879395,810,1
11,control,15.0,20,1,691.5409564971924,691.5380954742432,1342,1
12,control,16.0,20,1,492.9931163787842,492.98715591430664,896,1
13,control,17.0,20,1,608.1128120422363,608.1106662750244,1161,1
14,control,18.0,20,1,528.0449390411377,528.0389785766602,1396,1
15,control,19.0,20,1,691.9431686401367,691.9360160827637,935,1
16,control,20.0,20,1,558.3329200744629,558.3300590515137,1442,1
17,control,21.0,20,1,426.8531799316406,426.8472194671631,957,1
18,control,22.0,20,1,394.2830562591553,394.28186416625977,1209,1
19,control,23.0,20,1,493.53861808776855,493.5328960418701,1213,1
20,control,24.0,20,1,494.7538375854492,494.7478771209717,1106,1
21,control,25.0,20,1,396.3360786437988,396.3351249694824,871,1
22,control,26.0,20,1,396.1138725280762,396.11291885375977,1139,1
23,control,27.0,20,1,460.7689380645752,460.7658386230469,846,1
24,control,28.0,20,1,362.13183403015137,362.13111877441406,1090,1
25,control,29.0,20,1,560.5268478393555,560.5239868164062,1350,1
26,control,30.0,20,1,560.2359771728516,560.2350234985352,1098,1
27,control,5.0,20,1,64.84198570251465,425.75812339782715,1341,1
28,control,6.0,20,1,132.11297988891602,494.4629669189453,1092,1
29,control,7.0,20,1,100.13318061828613,406.80813789367676,1148,1
30,control,8.0,20,1,63.67015838623047,1516.3421630859375,1375,1
31,control,9.0,20,1,395.38002014160156,395.37596702575684,871,1
32,control,10.0,20,1,395.7479000091553,395.74694633483887,1320,1
33,control,11.0,20,1,427.21080780029297,427.20890045166016,1358,1
34,control,12.0,20,1,465.3010368347168,465.3000831604004,981,1
35,control,13.0,20,1,528.3019542694092,528.2998085021973,978,1
36,control,14.0,20,1,527.9250144958496,527.9159545898438,1283,1
37,control,15.0,20,1,361.0868453979492,361.0830307006836,1500,1
38,control,16.0,20,1,492.4149513244629,492.4130439758301,826,1
39,control,17.0,20,1,461.1971378326416,461.1949920654297,1377,1
40,control,18.0,20,1,559.8509311676025,559.8440170288086,1448,1
41,control,19.0,20,1,494.3881034851074,494.3821430206299,1250,1
42,control,20.0,20,1,692.694902420044,692.6920413970947,1195,1
43,control,21.0,20,1,395.2620029449463,395.2469825744629,977,1
44,control,22.0,20,1,462.6162052154541,462.6162052154541,887,1
45,control,23.0,20,1,361.4239692687988,361.4211082458496,1096,1
46,control,24.0,20,1,528.3119678497314,528.311014175415,1291,1
47,control,25.0,20,1,462.4288082122803,462.42690086364746,943,1
48,control,26.0,20,1,526.7550945281982,526.7519950866699,1112,1
49,control,27.0,20,1,589.2150402069092,589.2143249511719,957,1
50,control,28.0,20,1,526.3681411743164,526.3650417327881,863,1
51,control,29.0,20,1,526.7839431762695,526.7817974090576,1115,1
52,control,30.0,20,1,460.5529308319092,460.55102348327637,1104,1
53,control,5.0,17,1,132.27224349975586,460.45517921447754,1117,1
54,control,6.0,17,1,129.9750804901123,658.1671237945557,1181,1
55,control,7.0,17,1,133.03112983703613,396.7452049255371,1301,1
56,control,8.0,17,1,132.07292556762695,426.0869026184082,980,1
57,control,9.0,17,1,626.3678073883057,626.3668537139893,1234,1
58,control,10.0,17,1,495.8069324493408,495.8062171936035,1345,1
59,control,11.0,17,1,560.1179599761963,560.1129531860352,1110,1
60,control,12.0,17,1,427.7369976043701,427.7360439300537,1378,1
61,control,13.0,17,1,450.3939151763916,450.3929615020752,1088,1
62,control,14.0,17,1,527.0609855651855,527.0562171936035,1136,1
63,control,15.0,17,1,527.6820659637451,527.6751518249512,1476,1
64,control,16.0,17,1,394.5484161376953,394.545316696167,1029,1
65,control,17.0,17,1,570.5478191375732,570.544958114624,928,1
66,control,18.0,17,1,525.9060859680176,525.9020328521729,1439,1
67,control,19.0,17,1,427.8082847595215,427.80613899230957,1139,1
68,control,20.0,17,1,460.73198318481445,460.73102951049805,1261,1
69,control,21.0,17,1,527.0168781280518,527.015209197998,1107,1
70,control,22.0,17,1,462.10193634033203,462.1009826660156,1443,1
71,control,23.0,17,1,593.2118892669678,593.2087898254395,1084,1
72,control,24.0,17,1,497.1780776977539,497.1752166748047,919,1
73,control,25.0,17,1,491.2681579589844,491.26505851745605,1494,1
74,control,26.0,17,1,582.6592445373535,582.658052444458,1352,1
75,control,27.0,17,1,493.2980537414551,493.29614639282227,1001,1
76,control,28.0,17,1,1154.5257568359375,1154.5207500457764,1283,1
77,control,29.0,17,1,724.8313426971436,724.8272895812988,1331,1
78,control,30.0,17,1,821.7921257019043,821.7892646789551,863,1
79,control,5.0,17,1,66.12920761108398,428.2059669494629,1436,1
80,control,6.0,17,1,64.89896774291992,426.47600173950195,1352,1
81,control,7.0,17,1,165.33875465393066,492.94304847717285,1103,1
82,control,8.0,17,1,65.23895263671875,328.0830383300781,1324,1
83,control,9.0,17,1,503.9377212524414,503.93176078796387,858,1
84,control,10.0,17,1,492.60902404785156,492.60711669921875,1077,1
85,control,11.0,17,1,492.1708106994629,492.1698570251465,1072,1
86,control,12.0,17,1,493.15810203552246,493.15619468688965,1253,1
87,control,13.0,17,1,558.8059425354004,558.8040351867676,1021,1
88,control,14.0,17,1,494.94290351867676,494.94099617004395,971,1
89,control,15.0,17,1,492.326021194458,492.3241138458252,1040,1
90,control,16.0,17,1,570.7831382751465,570.7781314849854,922,1
91,control,17.0,17,1,492.61999130249023,492.6168918609619,1203,1
92,control,18.0,17,1,496.2279796600342,496.22392654418945,1385,1
93,control,19.0,17,1,493.0548667907715,493.05105209350586,1027,1
94,control,20.0,17,1,396.1338996887207,396.1329460144043,1027,1
95,control,21.0,17,1,395.84994316101074,395.84875106811523,1042,1
96,control,22.0,17,0,1154.832124710083,1154.8311710357666,1225,1
97,control,23.0,17,1,504.0919780731201,504.0900707244873,1430,1
98,control,24.0,17,0,825.6361484527588,825.6351947784424,1363,1
99,control,25.0,17,1,561.8350505828857,561.8281364440918,1249,1
100,control,26.0,17,1,339.7030830383301,339.70093727111816,1310,1
101,control,27.0,17,1,559.622049331665,559.6199035644531,1286,1
102,control,28.0,17,1,418.2729721069336,418.2729721069336,1454,1
103,control,29.0,17,1,461.2548351287842,461.25292778015137,1183,1
104,control,30.0,17,1,395.60985565185547,395.60985565185547,971,1
105,control,5.0,14,1,67.57187843322754,428.1787872314453,1385,1
106,control,6.0,14,1,63.79413604736328,361.74511909484863,835,1
107,control,7.0,14,1,137.15815544128418,431.58507347106934,1430,1
108,control,8.0,14,1,98.89674186706543,460.77895164489746,1219,1
109,control,9.0,14,1,529.5028686523438,529.5009613037109,961,1
110,control,10.0,14,1,164.43490982055664,459.71083641052246,931,1
111,control,11.0,14,1,363.2810115814209,363.278865814209,1432,1
112,control,12.0,14,1,812.9620552062988,812.9611015319824,1044,1
113,control,13.0,14,1,432.79409408569336,432.79314041137695,1450,1
114,control,14.0,14,1,460.0028991699219,460.00099182128906,841,1
115,control,15.0,14,1,392.70496368408203,392.6987648010254,1261,1
116,control,16.0,14,1,393.8131332397461,393.8112258911133,810,1
117,control,17.0,14,1,362.5340461730957,362.5328540802002,1176,1
118,control,18.0,14,1,428.77197265625,428.7707805633545,800,1
119,control,19.0,14,1,394.5198059082031,394.5138454437256,1138,1
120,control,20.0,14,1,428.83896827697754,428.8320541381836,1295,1
121,control,21.0,14,1,460.15095710754395,460.1478576660156,987,1
122,control,22.0,20,1,362.5657558441162,362.5648021697998,1210,1
123,control,23.0,14,1,461.06505393981934,461.0610008239746,1243,1
124,control,24.0,20,1,297.4569797515869,297.4560260772705,1400,1
125,control,25.0,14,1,450.714111328125,450.7131576538086,1326,1
126,control,26.0,14,1,659.2631340026855,659.2590808868408,1052,1
127,control,27.0,14,1,525.6760120391846,525.6731510162354,1010,1
128,control,28.0,14,1,429.9790859222412,429.9781322479248,953,1
129,control,29.0,14,0,891.2758827209473,891.2708759307861,1458,1
130,control,30.0,14,1,427.7801513671875,427.7791976928711,1455,1
131,control,5.0,14,1,363.0032539367676,363.00110816955566,839,1
132,control,6.0,14,1,132.48801231384277,428.79700660705566,1306,1
133,control,7.0,14,1,585.4799747467041,585.4778289794922,941,1
134,control,8.0,14,1,460.0980281829834,460.0958824157715,821,1
135,control,9.0,14,1,659.2998504638672,659.2957973480225,832,1
136,control,10.0,14,1,527.824878692627,527.8189182281494,1187,1
137,control,11.0,14,1,384.34290885925293,384.3419551849365,1460,1
138,control,12.0,14,1,427.81615257263184,427.814245223999,1373,1
139,control,13.0,14,1,362.74194717407227,362.74099349975586,1300,1
140,control,14.0,14,1,417.07324981689453,417.072057723999,1365,1
141,control,15.0,14,1,530.3418636322021,530.3411483764648,854,1
142,control,16.0,14,1,515.8100128173828,515.8090591430664,1400,1
143,control,17.0,14,1,472.1081256866455,472.1050262451172,850,1
144,control,18.0,14,1,600.6050109863281,600.6031036376953,878,1
145,control,19.0,14,1,362.96606063842773,362.962007522583,1409,1
146,control,20.0,14,1,462.42284774780273,462.4218940734863,1050,1
147,control,21.0,14,1,462.6789093017578,462.6750946044922,1447,1
148,control,22.0,20,1,461.9431495666504,461.9431495666504,838,1
149,control,23.0,14,1,459.5680236816406,459.5651626586914,1419,1
150,control,24.0,20,1,362.05387115478516,362.05291748046875,1184,1
151,control,25.0,14,1,454.18596267700195,454.18524742126465,1488,1
152,control,26.0,14,1,597.3451137542725,597.3420143127441,1080,1
153,control,27.0,14,0,746.9959259033203,746.9949722290039,1451,1
154,control,28.0,14,1,516.8919563293457,516.8907642364502,807,1
155,control,29.0,17,1,429.919958114624,429.912805557251,854,1
156,control,30.0,14,1,593.1301116943359,593.1251049041748,1204,1
157,control,5.0,11,1,132.56597518920898,495.3958988189697,816,1
158,control,6.0,11,1,99.55978393554688,529.181718826294,864,1
159,control,7.0,11,1,163.6040210723877,449.40805435180664,1310,1
160,control,8.0,11,1,460.21103858947754,460.2091312408447,847,1
161,control,9.0,11,1,429.19111251831055,429.1868209838867,1267,1
162,control,10.0,11,1,419.5268154144287,419.5258617401123,1028,1
163,control,11.0,11,1,394.07801628112793,394.0598964691162,970,1
164,control,12.0,11,1,520.7443237304688,520.7431316375732,1258,1
165,control,13.0,11,1,427.9789924621582,427.97374725341797,1126,1
166,control,14.0,11,1,392.52519607543945,392.52209663391113,1135,1
167,control,15.0,11,1,429.1970729827881,429.1961193084717,1297,1
168,control,16.0,11,1,526.6067981719971,526.6039371490479,1166,1
169,control,17.0,11,1,549.8690605163574,549.8678684234619,1265,1
170,control,18.0,11,1,726.9711494445801,726.9680500030518,1028,1
171,control,19.0,11,1,361.6347312927246,361.6330623626709,1051,1
172,control,20.0,11,1,472.66578674316406,472.66292572021484,1054,1
173,control,21.0,11,1,812.9351139068604,812.9339218139648,1296,1
174,control,22.0,18,1,460.17003059387207,460.16788482666016,1254,1
175,control,23.0,11,0,725.1241207122803,725.1200675964355,1440,1
176,control,24.0,18,1,560.5769157409668,560.5709552764893,1285,1
177,control,25.0,11,1,526.9699096679688,526.965856552124,1224,1
178,control,26.0,11,1,558.7441921234131,558.739185333252,1202,1
179,control,27.0,17,1,557.5270652770996,557.5239658355713,1365,1
180,control,28.0,11,1,516.4449214935303,516.444206237793,882,1
181,control,29.0,17,1,657.982349395752,657.9792499542236,1303,1
182,control,30.0,11,1,626.5323162078857,626.5292167663574,850,1
183,control,5.0,11,1,168.0130958557129,529.3519496917725,831,1
184,control,6.0,11,1,198.7898349761963,658.4389209747314,1209,1
185,control,7.0,11,1,99.23577308654785,560.4448318481445,1358,1
186,control,8.0,11,1,97.81122207641602,659.7552299499512,1125,1
187,control,9.0,11,1,361.407995223999,361.4029884338379,1085,1
188,control,10.0,11,1,527.2870063781738,527.285099029541,1063,1
189,control,11.0,11,1,352.0941734313965,548.9859580993652,934,1
190,control,12.0,11,1,361.42611503601074,361.4189624786377,1463,1
191,control,13.0,11,1,360.9929084777832,360.98599433898926,893,1
192,control,14.0,11,1,534.9299907684326,534.9249839782715,1173,1
193,control,15.0,11,1,359.04884338378906,359.0400218963623,1123,1
194,control,16.0,11,1,559.4742298126221,559.4720840454102,1397,1
195,control,17.0,11,1,538.3727550506592,538.3706092834473,1164,1
196,control,18.0,11,1,527.7981758117676,527.7953147888184,1301,1
197,control,19.0,11,1,549.2660999298096,549.2639541625977,1460,1
198,control,20.0,11,1,812.9041194915771,812.9029273986816,1312,1
199,control,21.0,11,1,461.810827255249,461.810827255249,1384,1
200,control,22.0,18,1,560.7209205627441,560.7178211212158,1475,1
201,control,23.0,14,1,528.6011695861816,528.5990238189697,1391,1
202,control,24.0,18,1,558.7449073791504,558.7399005889893,1172,1
203,control,25.0,11,1,394.428014755249,394.4261074066162,1311,1
204,control,26.0,11,1,428.28989028930664,428.2879829406738,1457,1
205,control,27.0,17,1,397.0339298248291,397.0301151275635,1492,1
206,control,28.0,11,1,494.55904960632324,494.55785751342773,1418,1
207,control,29.0,15,1,394.72198486328125,394.7179317474365,1278,1
208,control,30.0,11,1,614.2740249633789,614.2728328704834,1064,1
209,control,5.0,8,1,98.55008125305176,427.4752140045166,873,1
210,control,6.0,8,1,98.85621070861816,406.4030647277832,1074,1
211,control,7.0,8,1,98.97589683532715,395.0948715209961,863,1
212,control,8.0,8,1,100.62265396118164,395.83683013916016,1089,1
213,control,9.0,8,1,95.89004516601562,394.5889472961426,1010,1
214,control,10.0,8,1,396.32105827331543,396.320104598999,1051,1
215,control,11.0,8,1,395.9240913391113,395.920991897583,1098,1
216,control,12.0,8,1,395.91002464294434,395.90907096862793,1333,1
217,control,13.0,8,1,394.244909286499,394.2389488220215,1216,1
218,control,14.0,8,1,395.5698013305664,395.5681324005127,1394,1
219,control,15.0,8,1,492.8309917449951,492.8290843963623,874,1
220,control,16.0,8,1,397.46713638305664,397.4609375,984,1
221,control,17.0,8,1,394.8829174041748,394.8779106140137,1292,1
222,control,18.0,8,1,393.1398391723633,393.13387870788574,1398,0
223,control,18.0,8,1,396.1610794067383,396.1601257324219,1266,1
224,control,19.0,8,0,1121.0832595825195,1121.0792064666748,1118,1
225,control,20.0,8,1,493.2270050048828,493.2231903076172,930,1
226,control,21.0,8,1,919.4841384887695,919.4800853729248,910,1
227,control,22.0,17,1,396.3358402252197,396.3348865509033,1043,1
228,control,23.0,14,1,417.5291061401367,417.5281524658203,1397,1
229,control,24.0,17,1,492.9330348968506,492.92898178100586,1070,1
230,control,25.0,8,1,501.6767978668213,501.67393684387207,1302,1
231,control,26.0,8,1,416.75591468811035,416.75496101379395,1086,1
232,control,27.0,15,1,726.4142036437988,726.4111042022705,1219,1
233,control,28.0,8,1,603.424072265625,603.4209728240967,1344,1
234,control,29.0,15,1,393.9399719238281,393.9347267150879,1110,1
235,control,30.0,8,1,518.9208984375,518.9199447631836,1493,1
236,control,5.0,8,1,98.4950065612793,427.32810974121094,1108,1
237,control,6.0,8,1,98.65379333496094,395.16401290893555,1003,1
238,control,7.0,8,1,98.78706932067871,485.1040840148926,1219,1
239,control,8.0,8,1,395.2503204345703,395.2493667602539,990,1
240,control,9.0,8,1,501.8351078033447,501.8272399902344,977,1
241,control,10.0,8,1,395.1420783996582,395.1411247253418,1235,1
242,control,11.0,8,1,393.51868629455566,393.51391792297363,1193,1
243,control,12.0,8,1,384.29903984069824,384.29808616638184,1467,1
244,control,13.0,8,1,394.8488235473633,394.84477043151855,1319,1
245,control,14.0,8,1,395.3840732574463,395.3819274902344,1266,1
246,control,15.0,8,1,430.9117794036865,430.9098720550537,851,1
247,control,16.0,8,1,494.2891597747803,494.28391456604004,835,1
248,control,17.0,8,1,494.32373046875,494.3218231201172,1202,1
249,control,18.0,8,1,493.95203590393066,493.95108222961426,1365,1
250,control,19.0,11,1,502.00390815734863,502.0010471343994,1072,1
251,control,20.0,8,1,494.365930557251,494.36211585998535,1395,1
252,control,21.0,8,1,394.848108291626,394.84190940856934,1163,1
253,control,22.0,17,1,393.82028579711914,393.8181400299072,1399,1
254,control,23.0,12,1,505.0368309020996,505.0318241119385,846,1
255,control,24.0,17,1,488.65699768066406,488.65509033203125,1461,1
256,control,25.0,8,0,794.0518856048584,794.050931930542,965,1
257,control,26.0,8,1,889.5971775054932,889.592170715332,929,1
258,control,27.0,15,1,495.2418804168701,495.2409267425537,1491,1
259,control,28.0,8,1,788.3419990539551,788.334846496582,1067,1
260,control,29.0,14,1,494.9650764465332,494.9638843536377,1138,1
261,control,30.0,8,1,582.7429294586182,582.7419757843018,1094,1
262,control,5.0,5,1,99.26915168762207,493.5259819030762,1150,1
263,control,6.0,5,1,96.98891639709473,394.8509693145752,1116,1
264,control,7.0,5,1,99.34878349304199,394.5960998535156,925,1
265,control,8.0,5,1,436.1298084259033,436.1279010772705,1363,1
266,control,9.0,5,1,1020.359992980957,1020.352840423584,1204,1
267,control,10.0,5,1,395.8609104156494,395.8580493927002,1360,1
268,control,11.0,5,1,427.51407623291016,427.51002311706543,1088,1
269,control,12.0,5,1,394.84620094299316,394.8390483856201,811,1
270,control,13.0,5,0,691.281795501709,691.2801265716553,937,1
271,control,14.0,5,1,933.4290027618408,933.4268569946289,1041,1
272,control,15.0,5,0,815.8211708068848,815.8199787139893,900,1
273,control,16.0,5,0,1119.7268962860107,1119.7240352630615,852,1
274,control,17.0,5,1,627.7921199798584,627.7871131896973,1362,1
275,control,18.0,5,1,692.2361850738525,692.227840423584,1251,1
276,control,19.0,11,1,406.0549736022949,406.0499668121338,1342,1
277,control,20.0,5,0,990.4420375823975,990.4398918151855,1302,1
278,control,21.0,5,1,692.1529769897461,692.1510696411133,1215,1
279,control,22.0,15,1,495.26500701904297,495.26190757751465,1028,1
280,control,23.0,12,1,595.695972442627,595.6950187683105,874,1
281,control,24.0,15,1,528.235912322998,528.2330513000488,1455,1
282,control,25.0,11,1,493.55196952819824,493.549108505249,1012,1
283,control,26.0,5,0,1099.0972518920898,1099.0922451019287,1283,1
284,control,27.0,14,1,493.3650493621826,493.3619499206543,1484,1
285,control,28.0,5,1,791.0099029541016,791.0068035125732,1135,1
286,control,29.0,14,1,526.0138511657715,526.0117053985596,906,1
287,control,30.0,5,1,692.2519207000732,692.2502517700195,1320,1
288,control,5.0,5,1,99.2577075958252,396.24500274658203,911,1
289,control,6.0,5,1,98.82688522338867,428.00092697143555,1419,1
290,control,7.0,5,0,97.86319732666016,920.8130836486816,1243,1
291,control,8.0,5,1,97.55373001098633,527.2097587585449,855,1
292,control,9.0,5,1,494.1139221191406,494.1117763519287,1358,1
293,control,10.0,5,1,493.84498596191406,493.84212493896484,1192,1
294,control,11.0,5,1,1089.8606777191162,1089.8559093475342,959,1
295,control,12.0,5,1,489.5663261413574,489.565372467041,1077,1
296,control,13.0,8,1,394.4509029388428,394.44613456726074,1256,1
297,control,14.0,5,0,889.5909786224365,889.5888328552246,917,1
298,control,15.0,8,1,626.4619827270508,626.4519691467285,803,1
299,control,16.0,8,1,561.0239505767822,561.0229969024658,1220,1
300,control,17.0,5,0,824.7420787811279,824.7401714324951,1465,1
301,control,18.0,5,1,570.6961154937744,570.6820487976074,1263,1
302,control,19.0,9,1,463.85788917541504,463.85693550109863,835,1
303,control,20.0,8,1,460.62493324279785,460.6192111968994,869,1
304,control,21.0,5,1,822.6847648620605,822.6838111877441,1483,1
305,control,22.0,15,1,459.1810703277588,459.17606353759766,1160,1
306,control,23.0,11,1,560.6937408447266,560.6920719146729,1496,1
307,control,24.0,15,1,468.1379795074463,468.13368797302246,1007,1
308,control,25.0,11,1,459.0301513671875,459.0280055999756,1414,1
309,control,26.0,8,1,427.1275997161865,427.1259307861328,939,1
310,control,27.0,14,1,565.8249855041504,565.824031829834,980,1
311,control,28.0,5,1,462.28504180908203,462.2840881347656,1249,1
312,control,29.0,12,1,617.311954498291,617.3110008239746,1440,1
313,control,30.0,5,0,714.8230075836182,714.8220539093018,970,1
314,control,5.0,2,1,97.67508506774902,1021.496057510376,1114,1
315,control,6.0,2,1,100.27098655700684,815.5157566070557,1282,1
316,control,7.0,8,1,65.9189224243164,361.84120178222656,1080,1
317,control,8.0,2,0,98.24275970458984,823.9967823028564,1257,1
318,control,9.0,2,0,736.0460758209229,736.037015914917,1107,1
319,control,10.0,2,1,734.6997261047363,734.6947193145752,930,1
320,control,11.0,2,0,725.7161140441895,725.7139682769775,1452,1
321,control,12.0,2,1,669.2819595336914,669.2800521850586,1153,1
322,control,13.0,8,1,557.6448440551758,557.6431751251221,818,1
323,control,14.0,8,0,832.266092300415,832.2649002075195,922,1
324,control,15.0,8,0,823.9331245422363,823.9271640777588,1330,1
325,control,16.0,8,1,462.22782135009766,462.2230529785156,1444,1
326,control,17.0,8,1,460.2971076965332,460.29019355773926,1385,1
327,control,18.0,2,1,825.2856731414795,825.2828121185303,902,1
328,control,19.0,9,1,559.333086013794,559.3249797821045,833,1
329,control,20.0,8,1,560.7848167419434,560.7829093933105,839,1
330,control,21.0,2,1,734.7562313079834,734.7531318664551,1067,1
331,control,22.0,14,1,560.1847171783447,560.1768493652344,914,1
332,control,23.0,11,1,461.89117431640625,461.8868827819824,1091,1
333,control,24.0,14,1,549.4749546051025,549.4740009307861,832,1
334,control,25.0,9,1,625.7109642028809,625.7059574127197,1457,1
335,control,26.0,8,1,726.4680862426758,726.466178894043,809,1
336,control,27.0,12,1,732.1579456329346,732.1560382843018,1244,1
337,control,28.0,2,1,570.6448554992676,570.6431865692139,1014,1
338,control,29.0,12,1,515.7907009124756,515.7897472381592,1462,1
339,control,30.0,8,0,725.3391742706299,725.3329753875732,966,1
340,control,5.0,2,0,66.71380996704102,735.0866794586182,1485,1
341,control,6.0,2,0,65.7498836517334,725.8422374725342,1254,1
342,control,7.0,8,1,99.20001029968262,459.83195304870605,805,1
343,control,8.0,5,1,197.27206230163574,823.1432437896729,1173,1
344,control,9.0,5,0,471.9419479370117,471.9359874725342,1177,1
345,control,10.0,2,1,1385.310173034668,1385.3061199188232,1360,1
346,control,11.0,5,1,658.2109928131104,658.2069396972656,1241,1
347,control,12.0,2,0,821.0351467132568,821.0330009460449,1188,1
348,control,13.0,6,1,549.4101047515869,549.4089126586914,1471,1
349,control,14.0,11,1,559.5569610595703,559.5500469207764,877,1
350,control,15.0,9,1,724.4539260864258,724.4486808776855,1218,1
351,control,16.0,6,1,264.1899585723877,723.3939170837402,1152,1
352,control,17.0,8,1,603.463888168335,603.4579277038574,1282,1
353,control,18.0,2,0,459.6982002258301,459.69414710998535,1427,1
354,control,19.0,8,1,428.91383171081543,428.9119243621826,860,1
355,control,20.0,6,0,691.9651031494141,691.9591426849365,951,1
356,control,21.0,2,1,528.141975402832,528.1398296356201,1340,1
357,control,22.0,14,1,525.8333683013916,525.827169418335,1321,1
358,control,23.0,9,1,527.3637771606445,527.3237228393555,1465,1
359,control,24.0,14,1,429.49986457824707,429.49604988098145,932,1
360,control,25.0,9,1,594.2749977111816,594.2718982696533,1412,1
361,control,26.0,6,0,626.5108585357666,626.5096664428711,1371,1
362,control,27.0,12,1,691.7529106140137,691.7438507080078,910,1
363,control,28.0,2,1,648.5249996185303,648.5238075256348,1424,1
364,control,29.0,11,1,759.6898078918457,759.6888542175293,923,1
365,control,30.0,11,1,601.7320156097412,601.7279624938965,1208,1
366,control,5.0,5,1,99.21789169311523,692.1827793121338,1379,1
367,control,6.0,5,1,132.3070526123047,526.0753631591797,1083,1
368,control,7.0,6,1,132.59291648864746,533.6220264434814,812,1
369,control,8.0,5,1,525.5968570709229,525.5942344665527,1101,1
370,control,9.0,8,1,593.0898189544678,593.0838584899902,1090,1
371,control,10.0,1,0,932.7392578125,932.7361583709717,1267,1
372,control,11.0,5,1,529.9232006072998,529.9201011657715,1025,1
373,control,12.0,5,1,594.0799713134766,594.0790176391602,985,1
374,control,13.0,6,0,1189.1379356384277,1189.1369819641113,1294,1
375,control,14.0,11,1,458.4331512451172,458.4319591522217,1166,1
376,control,15.0,9,1,791.15891456604,791.1579608917236,1168,1
377,control,16.0,6,1,583.0719470977783,583.0700397491455,1106,1
378,control,17.0,6,0,736.4957332611084,736.4926338195801,1198,1
379,control,18.0,5,0,804.7547340393066,804.7521114349365,826,1
380,control,19.0,8,1,527.4522304534912,527.4460315704346,1404,1
381,control,20.0,8,1,594.8920249938965,594.8910713195801,1373,1
382,control,21.0,1,1,724.6887683868408,724.6878147125244,1182,1
383,control,22.0,12,1,526.6087055206299,526.6067981719971,1156,1
384,control,23.0,9,1,755.2876472473145,755.2859783172607,819,1
385,control,24.0,12,1,526.8471240997314,526.8411636352539,903,1
386,control,25.0,8,0,789.3350124359131,789.3311977386475,1103,1
387,control,26.0,8,0,614.9449348449707,614.9439811706543,1138,1
388,control,27.0,11,1,692.0647621154785,692.0628547668457,1462,1
389,control,28.0,1,1,690.2050971984863,690.2000904083252,1344,1
390,control,29.0,11,1,690.248966217041,690.2458667755127,926,1
1,quadbright,5.0,20,1,99.35188293457031,890.5529975891113,1342,1
2,quadbright,6.0,20,1,133.35180282592773,691.0419464111328,1308,1
3,quadbright,7.0,20,1,98.71697425842285,528.0969142913818,989,1
4,quadbright,8.0,20,1,99.07317161560059,392.76599884033203,1242,1
5,quadbright,9.0,20,1,723.7138748168945,723.7076759338379,1407,1
6,quadbright,10.0,20,1,662.4388694763184,662.4367237091064,1420,1
7,quadbright,11.0,20,1,493.99495124816895,493.99328231811523,1008,1
8,quadbright,12.0,20,1,659.7130298614502,659.70778465271,1016,1
9,quadbright,13.0,20,1,395.42388916015625,395.42078971862793,1404,1
10,quadbright,14.0,20,1,394.9129581451416,394.9089050292969,1411,1
11,quadbright,15.0,20,1,428.5252094268799,428.5240173339844,976,1
12,quadbright,16.0,20,1,527.9059410095215,527.9059410095215,1443,1
13,quadbright,17.0,20,1,494.1439628601074,494.1377639770508,900,1
14,quadbright,18.0,20,1,528.7542343139648,528.7530422210693,824,1
15,quadbright,19.0,20,1,394.99592781066895,394.99402046203613,1064,1
16,quadbright,20.0,20,1,504.9700736999512,504.96697425842285,1015,1
17,quadbright,21.0,20,1,427.2799491882324,427.2780418395996,1483,1
18,quadbright,22.0,20,1,428.8198947906494,428.8182258605957,1312,1
19,quadbright,23.0,20,1,559.3528747558594,559.3459606170654,1294,1
20,quadbright,24.0,20,1,527.9698371887207,527.9650688171387,1472,1
21,quadbright,25.0,20,1,471.9381332397461,471.93121910095215,1036,1
22,quadbright,26.0,20,1,460.21199226379395,460.2088928222656,1332,1
23,quadbright,27.0,20,1,461.09580993652344,461.0939025878906,1120,1
24,quadbright,28.0,20,0,1052.5257587432861,1052.5219440460205,1333,1
25,quadbright,29.0,20,1,515.4190063476562,515.4178142547607,1149,1
26,quadbright,30.0,20,1,693.2809352874756,693.27712059021,1064,1
27,quadbright,5.0,20,1,65.88983535766602,723.3619689941406,1481,1
28,quadbright,6.0,20,1,65.36078453063965,461.3487720489502,1193,1
29,quadbright,7.0,20,1,98.34909439086914,493.92223358154297,1360,1
30,quadbright,8.0,20,1,457.3020935058594,457.29899406433105,903,1
31,quadbright,9.0,20,1,429.074764251709,429.0738105773926,827,1
32,quadbright,10.0,20,1,790.4539108276367,790.449857711792,1060,1
33,quadbright,11.0,20,1,396.13795280456543,396.136999130249,1150,1
34,quadbright,12.0,20,1,493.38698387145996,493.3819770812988,808,1
35,quadbright,13.0,20,1,625.1020431518555,625.0958442687988,992,1
36,quadbright,14.0,20,1,362.3170852661133,362.3161315917969,1201,1
37,quadbright,15.0,20,1,428.5571575164795,428.5550117492676,839,1
38,quadbright,16.0,20,1,420.0429916381836,420.0420379638672,1317,1
39,quadbright,17.0,20,1,592.7178859710693,592.7162170410156,1133,1
40,quadbright,18.0,20,1,825.4499435424805,825.4477977752686,1500,1
41,quadbright,19.0,20,1,538.2230281829834,538.214921951294,1051,1
42,quadbright,20.0,20,1,558.2180023193359,558.2118034362793,1145,1
43,quadbright,21.0,20,1,680.4320812225342,680.4311275482178,1344,1
44,quadbright,22.0,20,1,661.7741584777832,661.7710590362549,929,1
45,quadbright,23.0,20,1,528.9828777313232,528.9809703826904,812,1
46,quadbright,24.0,20,0,394.11306381225586,394.10996437072754,1496,1
47,quadbright,25.0,20,1,517.348051071167,517.3470973968506,1182,1
48,quadbright,26.0,20,1,730.0372123718262,730.0350666046143,1010,1
49,quadbright,27.0,20,1,527.0309448242188,527.0299911499023,1145,1
50,quadbright,28.0,23,1,661.2331867218018,661.2260341644287,1081,1
51,quadbright,29.0,20,1,889.5971775054932,889.592170715332,1071,1
52,quadbright,30.0,20,0,989.3691539764404,989.3622398376465,870,1
53,quadbright,5.0,17,1,132.5089931488037,492.88082122802734,1103,1
54,quadbright,6.0,17,1,132.2798728942871,526.6268253326416,1183,1
55,quadbright,7.0,17,1,65.58084487915039,526.2060165405273,942,1
56,quadbright,8.0,17,1,131.9589614868164,659.1341495513916,1326,1
57,quadbright,9.0,17,1,330.427885055542,527.1239280700684,1306,1
58,quadbright,10.0,17,1,516.4608955383301,516.4599418640137,1020,1
59,quadbright,11.0,17,1,516.7899131774902,516.7877674102783,1297,1
60,quadbright,12.0,17,1,691.7870044708252,691.7848587036133,1145,1
61,quadbright,13.0,17,1,518.2740688323975,518.273115158081,815,1
62,quadbright,14.0,17,1,672.9848384857178,672.9838848114014,847,1
63,quadbright,15.0,17,1,328.97496223449707,328.97281646728516,1107,1
64,quadbright,16.0,17,1,561.6178512573242,561.6168975830078,980,1
65,quadbright,17.0,17,1,658.8220596313477,658.8201522827148,1142,1
66,quadbright,18.0,17,1,493.9608573913574,493.9560890197754,957,1
67,quadbright,19.0,17,1,429.02588844299316,429.02493476867676,1284,1
68,quadbright,20.0,17,1,659.0631008148193,659.060001373291,1402,1
69,quadbright,21.0,17,1,593.5759544372559,593.5728549957275,1106,1
70,quadbright,22.0,17,1,505.74493408203125,505.7358741760254,904,1
71,quadbright,23.0,17,0,757.4949264526367,757.4877738952637,1313,1
72,quadbright,24.0,23,1,558.9141845703125,558.9120388031006,1311,1
73,quadbright,25.0,17,1,659.7437858581543,659.7387790679932,1006,1
74,quadbright,26.0,17,1,922.3818778991699,922.3799705505371,1042,1
75,quadbright,27.0,17,1,426.68986320495605,426.68795585632324,1056,1
76,quadbright,28.0,23,1,494.3709373474121,494.3690299987793,1462,1
77,quadbright,29.0,17,1,428.2817840576172,428.2808303833008,1192,1
78,quadbright,30.0,23,1,757.6749324798584,757.6730251312256,1424,1
79,quadbright,5.0,17,1,65.18220901489258,494.840145111084,800,1
80,quadbright,6.0,17,1,65.7951831817627,494.0500259399414,1170,1
81,quadbright,7.0,17,1,65.43684005737305,494.0369129180908,942,1
82,quadbright,8.0,17,1,164.08896446228027,492.6779270172119,956,1
83,quadbright,9.0,17,1,485.41903495788574,485.41808128356934,835,1
84,quadbright,10.0,17,1,493.8690662384033,493.865966796875,930,1
85,quadbright,11.0,17,1,493.69192123413086,493.68977546691895,915,1
86,quadbright,12.0,17,1,396.085262298584,396.0843086242676,1242,1
87,quadbright,13.0,17,1,1141.469955444336,1141.4690017700195,1289,1
88,quadbright,14.0,17,1,328.319787979126,328.31788063049316,1286,1
89,quadbright,15.0,17,1,428.4341335296631,428.4329414367676,1171,1
90,quadbright,16.0,17,1,660.6180667877197,660.6149673461914,1368,1
91,quadbright,17.0,17,1,492.0358657836914,492.0339584350586,1077,1
92,quadbright,18.0,17,1,658.6201190948486,658.6170196533203,1372,1
93,quadbright,19.0,17,1,493.5617446899414,493.5591220855713,1436,1
94,quadbright,20.0,17,1,723.0730056762695,723.067045211792,1307,1
95,quadbright,21.0,17,1,724.8022556304932,724.799394607544,1359,1
96,quadbright,22.0,17,1,746.3810443878174,746.3788986206055,1023,1
97,quadbright,23.0,20,1,659.3499183654785,659.3477725982666,1402,1
98,quadbright,24.0,23,1,592.8142070770264,592.811107635498,863,1
99,quadbright,25.0,17,1,593.9736366271973,593.970775604248,1212,1
100,quadbright,26.0,17,1,725.3420352935791,725.3358364105225,1487,1
101,quadbright,27.0,17,1,461.1220359802246,461.1179828643799,1323,1
102,quadbright,28.0,20,1,526.2408256530762,526.2367725372314,1063,1
103,quadbright,29.0,17,1,472.2590446472168,472.25499153137207,1239,1
104,quadbright,30.0,23,1,527.785062789917,527.7829170227051,1084,1
105,quadbright,5.0,14,1,133.56995582580566,496.12998962402344,918,1
106,quadbright,6.0,14,1,132.86519050598145,426.9089698791504,831,1
107,quadbright,7.0,14,1,1429.3088912963867,1429.306983947754,1327,1
108,quadbright,8.0,14,1,131.57391548156738,417.31882095336914,998,1
109,quadbright,9.0,14,1,361.8922233581543,361.88793182373047,1135,1
110,quadbright,10.0,14,1,460.9198570251465,460.91485023498535,971,1
111,quadbright,11.0,14,1,429.0659427642822,429.0611743927002,1102,1
112,quadbright,12.0,14,1,529.0946960449219,529.0920734405518,1353,1
113,quadbright,13.0,14,1,436.2149238586426,436.2027645111084,944,1
114,quadbright,14.0,14,1,426.7139434814453,426.7098903656006,1372,1
115,quadbright,15.0,14,1,458.1718444824219,458.1630229949951,1239,1
116,quadbright,16.0,14,1,525.3958702087402,525.393009185791,874,1
117,quadbright,17.0,14,1,461.89093589782715,461.885929107666,1043,1
118,quadbright,18.0,14,1,461.7929458618164,461.7919921875,1237,1
119,quadbright,19.0,14,1,1417.3929691314697,1417.3858165740967,1468,1
120,quadbright,20.0,14,1,458.8339328765869,458.8322639465332,1472,1
121,quadbright,21.0,14,1,1177.3748397827148,1177.3738861083984,1350,1
122,quadbright,22.0,14,1,393.7978744506836,393.79405975341797,1470,1
123,quadbright,23.0,20,1,526.4809131622314,526.4768600463867,992,1
124,quadbright,24.0,21,1,418.11108589172363,418.1079864501953,1484,1
125,quadbright,25.0,14,0,649.6610641479492,649.6610641479492,897,1
126,quadbright,26.0,14,1,537.7631187438965,537.7609729766846,1268,1
127,quadbright,27.0,14,1,758.1028938293457,758.0978870391846,1334,1
128,quadbright,28.0,20,1,363.65604400634766,363.65389823913574,1146,1
129,quadbright,29.0,14,0,591.162919998169,591.1548137664795,1087,1
130,quadbright,30.0,21,1,525.2528190612793,525.2439975738525,904,1
131,quadbright,5.0,14,1,65.22893905639648,362.46275901794434,1266,1
132,quadbright,6.0,14,1,66.22505187988281,362.7889156341553,1192,1
133,quadbright,7.0,14,1,427.5650978088379,427.562952041626,1385,1
134,quadbright,8.0,14,1,131.760835647583,430.8760166168213,988,1
135,quadbright,9.0,14,1,427.6437759399414,427.6399612426758,1274,1
136,quadbright,10.0,14,1,426.11193656921387,426.10788345336914,1028,1
137,quadbright,11.0,14,1,468.66703033447266,468.66297721862793,907,1
138,quadbright,12.0,14,1,518.4917449951172,518.4907913208008,1441,1
139,quadbright,13.0,14,1,526.2761116027832,526.2730121612549,834,1
140,quadbright,14.0,14,1,529.1290283203125,529.1268825531006,1127,1
141,quadbright,15.0,14,1,592.5929546356201,592.5891399383545,1375,1
142,quadbright,16.0,14,1,658.545970916748,658.5428714752197,822,1
143,quadbright,17.0,14,1,530.322790145874,530.3196907043457,969,1
144,quadbright,18.0,14,1,450.1228332519531,450.1218795776367,1437,1
145,quadbright,19.0,14,1,460.87193489074707,460.86573600769043,1353,1
146,quadbright,20.0,14,1,426.9430637359619,426.9378185272217,1268,1
147,quadbright,21.0,14,1,1120.784044265747,1120.7771301269531,874,1
148,quadbright,22.0,14,1,451.86686515808105,451.86591148376465,1172,1
149,quadbright,23.0,18,1,524.8961448669434,524.8923301696777,905,1
150,quadbright,24.0,21,1,429.9812316894531,429.9790859222412,1479,1
151,quadbright,25.0,17,1,595.3516960144043,595.3469276428223,969,1
152,quadbright,26.0,14,1,528.095006942749,528.0938148498535,928,1
153,quadbright,27.0,14,1,532.1609973907471,532.1557521820068,816,1
154,quadbright,28.0,17,0,525.0129699707031,525.010347366333,1043,1
155,quadbright,29.0,17,1,615.6249046325684,615.623950958252,1076,1
156,quadbright,30.0,21,1,691.5690898895264,691.5671825408936,1326,1
157,quadbright,5.0,11,1,133.24904441833496,429.28099632263184,1282,1
158,quadbright,6.0,11,1,64.73994255065918,428.6348819732666,846,1
159,quadbright,7.0,11,1,429.51297760009766,429.51297760009766,1388,1
160,quadbright,8.0,11,1,527.5907516479492,527.5888442993164,1355,1
161,quadbright,9.0,11,1,517.7450180053711,517.7440643310547,1312,1
162,quadbright,10.0,11,1,425.5719184875488,425.5688190460205,1056,1
163,quadbright,11.0,11,1,526.3638496398926,526.3619422912598,1187,1
164,quadbright,12.0,11,1,516.5078639984131,516.5078639984131,1027,1
165,quadbright,13.0,11,1,626.2657642364502,626.2578964233398,997,1
166,quadbright,14.0,11,1,495.2712059020996,495.2681064605713,804,1
167,quadbright,15.0,11,1,693.6361789703369,693.6349868774414,1169,1
168,quadbright,16.0,11,1,527.1008014678955,527.0991325378418,1065,1
169,quadbright,17.0,11,0,768.1388854980469,768.136739730835,1023,1
170,quadbright,18.0,11,1,560.7161521911621,560.7140064239502,1207,1
171,quadbright,19.0,11,1,647.9811668395996,647.9799747467041,1341,1
172,quadbright,20.0,11,0,726.0379791259766,726.0370254516602,885,1
173,quadbright,21.0,11,1,725.9120941162109,725.9058952331543,1194,1
174,quadbright,22.0,11,1,824.4540691375732,824.4500160217285,1460,1
175,quadbright,23.0,18,1,559.938907623291,559.9358081817627,1344,1
176,quadbright,24.0,20,1,450.56986808776855,450.56891441345215,1128,1
177,quadbright,25.0,17,1,628.9808750152588,628.9777755737305,1216,1
178,quadbright,26.0,11,1,619.0409660339355,619.0400123596191,933,1
179,quadbright,27.0,11,0,826.3111114501953,826.3092041015625,1216,1
180,quadbright,28.0,20,1,362.4300956726074,362.4289035797119,1344,1
181,quadbright,29.0,17,0,824.3310451507568,824.3272304534912,823,1
182,quadbright,30.0,20,1,625.6072521209717,625.6020069122314,1256,1
183,quadbright,5.0,11,1,99.79891777038574,568.1858062744141,1116,1
184,quadbright,6.0,11,1,65.44208526611328,362.2720241546631,1081,1
185,quadbright,7.0,11,1,168.26200485229492,462.6939296722412,1048,1
186,quadbright,8.0,11,1,165.1151180267334,527.79221534729,1296,1
187,quadbright,9.0,11,1,361.94705963134766,361.94396018981934,1466,1
188,quadbright,10.0,11,1,560.6887340545654,560.687780380249,995,1
189,quadbright,11.0,11,1,662.0657444000244,662.060022354126,820,1
190,quadbright,12.0,11,1,651.033878326416,651.0329246520996,1239,1
191,quadbright,13.0,11,1,459.95497703552246,459.95283126831055,944,1
192,quadbright,14.0,11,0,458.57691764831543,458.5738182067871,1239,1
193,quadbright,15.0,11,0,1017.8689956665039,1017.8670883178711,1117,1
194,quadbright,16.0,11,1,713.9511108398438,713.9501571655273,1408,1
195,quadbright,17.0,14,1,566.3831233978271,566.3809776306152,1425,1
196,quadbright,18.0,11,1,559.5288276672363,559.525728225708,1115,1
197,quadbright,19.0,11,1,822.7479457855225,822.7460384368896,1439,1
198,quadbright,20.0,14,1,558.6409568786621,558.6369037628174,1180,1
199,quadbright,21.0,11,1,525.1829624176025,525.1810550689697,1361,1
200,quadbright,22.0,11,1,393.68391036987305,393.6800956726074,1147,1
201,quadbright,23.0,17,1,384.6559524536133,384.65189933776855,1286,1
202,quadbright,24.0,20,1,397.3548412322998,397.34482765197754,1087,1
203,quadbright,25.0,15,1,394.3970203399658,394.392728805542,1167,1
204,quadbright,26.0,11,0,691.2460327148438,691.2381649017334,923,1
205,quadbright,27.0,14,1,527.2469520568848,527.2419452667236,1334,1
206,quadbright,28.0,20,1,395.5109119415283,395.5039978027344,1237,1
207,quadbright,29.0,18,1,482.5432300567627,482.5422763824463,1067,1
208,quadbright,30.0,20,1,393.8722610473633,393.87011528015137,1334,1
209,quadbright,5.0,8,1,99.35426712036133,394.2751884460449,1130,1
210,quadbright,6.0,8,1,99.09296035766602,396.2528705596924,812,1
211,quadbright,7.0,8,1,98.76179695129395,427.2139072418213,927,1
212,quadbright,8.0,8,1,394.7010040283203,394.7000503540039,1328,1
213,quadbright,9.0,8,1,393.8922882080078,393.8870429992676,1072,1
214,quadbright,10.0,8,1,393.27001571655273,393.2671546936035,1480,1
215,quadbright,11.0,8,1,99.75123405456543,1077.8272151947021,1026,1
216,quadbright,12.0,8,1,405.67517280578613,405.6730270385742,1272,1
217,quadbright,13.0,8,1,505.1841735839844,505.17892837524414,1058,1
218,quadbright,14.0,14,1,427.3338317871094,427.33192443847656,1081,1
219,quadbright,15.0,14,1,493.84307861328125,493.8387870788574,1209,1
220,quadbright,16.0,8,1,494.75669860839844,494.7540760040283,1164,1
221,quadbright,17.0,14,1,598.6402034759521,598.6340045928955,1048,1
222,quadbright,18.0,8,1,693.1741237640381,693.1729316711426,1488,1
223,quadbright,19.0,8,1,495.0709342956543,495.0690269470215,975,1
224,quadbright,20.0,14,1,395.8919048309326,395.8897590637207,807,1
225,quadbright,21.0,8,1,525.6061553955078,525.6040096282959,1389,1
226,quadbright,22.0,8,1,632.5709819793701,632.5640678405762,1323,1
227,quadbright,23.0,17,1,527.0988941192627,527.0979404449463,905,1
228,quadbright,24.0,18,1,402.4999141693115,402.4960994720459,1310,1
229,quadbright,25.0,15,1,524.7800350189209,524.773120880127,955,1
230,quadbright,26.0,14,1,582.4198722839355,582.4191570281982,1003,1
231,quadbright,27.0,14,1,689.1717910766602,689.1670227050781,1092,1
232,quadbright,28.0,18,1,494.2457675933838,494.24004554748535,1434,1
233,quadbright,29.0,18,1,593.494176864624,593.4910774230957,1003,1
234,quadbright,30.0,18,1,395.0791358947754,395.07198333740234,1026,1
235,quadbright,5.0,8,1,99.59006309509277,395.77412605285645,1073,1
236,quadbright,6.0,8,1,99.21383857727051,933.081865310669,1424,1
237,quadbright,7.0,8,1,99.50017929077148,521.5950012207031,941,1
238,quadbright,8.0,8,1,100.77500343322754,427.3538589477539,1174,1
239,quadbright,9.0,8,1,485.75901985168457,485.75782775878906,1305,1
240,quadbright,10.0,8,1,393.8150405883789,393.812894821167,1002,1
241,quadbright,11.0,8,1,493.405818939209,493.40176582336426,1164,1
242,quadbright,12.0,8,1,493.0388927459717,493.0379390716553,819,1
243,quadbright,13.0,8,1,582.9131603240967,582.9110145568848,916,1
244,quadbright,14.0,14,1,394.86193656921387,394.85907554626465,920,1
245,quadbright,15.0,14,1,394.9587345123291,394.9549198150635,1239,1
246,quadbright,16.0,8,0,889.7590637207031,889.7511959075928,1396,1
247,quadbright,17.0,12,1,493.4871196746826,493.4818744659424,871,1
248,quadbright,18.0,8,1,788.3970737457275,788.3930206298828,1338,1
249,quadbright,19.0,8,1,592.9059982299805,592.904806137085,1400,1
250,quadbright,20.0,12,1,693.3810710906982,693.3770179748535,1110,1
251,quadbright,21.0,8,0,694.0810680389404,694.0751075744629,831,1
252,quadbright,22.0,8,1,593.8098430633545,593.8060283660889,1277,1
253,quadbright,23.0,15,1,636.9960308074951,636.9931697845459,1200,1
254,quadbright,24.0,18,1,393.8000202178955,393.798828125,1262,1
255,quadbright,25.0,14,1,502.1634101867676,502.1531581878662,1484,1
256,quadbright,26.0,14,1,684.5393180847168,684.5381259918213,870,1
257,quadbright,27.0,12,1,493.743896484375,493.73912811279297,965,1
258,quadbright,28.0,18,1,494.1561222076416,494.1539764404297,1023,1
259,quadbright,29.0,17,1,504.364013671875,504.3618679046631,1361,1
260,quadbright,30.0,18,0,393.4760093688965,393.47290992736816,1456,1
261,quadbright,5.0,5,1,97.38302230834961,624.3710517883301,1083,1
262,quadbright,6.0,5,1,175.04286766052246,734.0548038482666,1080,1
263,quadbright,7.0,5,1,98.37102890014648,636.4450454711914,1007,1
264,quadbright,8.0,5,1,105.59701919555664,500.63610076904297,852,1
265,quadbright,9.0,5,1,637.3019218444824,637.2990608215332,1032,1
266,quadbright,10.0,5,1,692.9550170898438,692.9538249969482,1397,1
267,quadbright,11.0,5,1,790.7309532165527,790.7271385192871,1410,1
268,quadbright,12.0,5,1,792.4039363861084,792.402982711792,1306,1
269,quadbright,13.0,5,1,725.2349853515625,725.2328395843506,978,1
270,quadbright,14.0,12,1,736.5682125091553,736.5591526031494,1259,1
271,quadbright,15.0,12,1,627.0549297332764,627.0530223846436,1187,1
272,quadbright,16.0,11,1,527.5740623474121,527.5671482086182,1101,1
273,quadbright,17.0,12,1,494.6098327636719,494.60887908935547,1371,1
274,quadbright,18.0,5,1,681.0507774353027,681.0498237609863,927,1
275,quadbright,19.0,5,0,888.5810375213623,888.5791301727295,802,1
276,quadbright,20.0,12,1,592.2079086303711,592.2040939331055,1274,1
277,quadbright,21.0,11,1,493.5569763183594,493.55483055114746,942,1
278,quadbright,22.0,5,1,690.2539730072021,690.248966217041,1080,1
279,quadbright,23.0,15,1,494.2820072174072,494.2770004272461,1416,1
280,quadbright,24.0,17,1,493.75009536743164,493.74914169311523,1346,1
281,quadbright,25.0,14,1,583.2581520080566,583.2571983337402,868,1
282,quadbright,26.0,12,1,1131.087064743042,1131.0839653015137,1260,1
283,quadbright,27.0,12,1,495.30696868896484,495.30601501464844,1011,1
284,quadbright,28.0,17,1,624.3231296539307,624.3200302124023,1161,1
285,quadbright,29.0,17,1,492.74587631225586,492.73681640625,1083,1
286,quadbright,30.0,20,1,396.06618881225586,396.06499671936035,1032,1
287,quadbright,5.0,5,1,98.9530086517334,398.38218688964844,934,1
288,quadbright,6.0,5,1,97.79882431030273,1088.305950164795,1466,1
289,quadbright,7.0,5,1,100.11005401611328,601.3312339782715,1421,1
290,quadbright,8.0,5,1,132.80296325683594,725.9550094604492,1352,1
291,quadbright,9.0,5,1,716.1531448364258,716.1509990692139,1034,1
292,quadbright,10.0,5,0,633.0921649932861,633.0890655517578,1360,1
293,quadbright,11.0,5,0,693.5501098632812,693.5482025146484,970,1
294,quadbright,12.0,5,1,790.4398441314697,790.4360294342041,1091,1
295,quadbright,13.0,5,0,1089.2059803009033,1089.2038345336914,980,1
296,quadbright,14.0,12,1,495.9580898284912,495.9561824798584,1408,1
297,quadbright,15.0,12,1,685.4300498962402,685.4288578033447,892,1
298,quadbright,16.0,11,1,494.9817657470703,494.97389793395996,1305,1
299,quadbright,17.0,11,1,978.2900810241699,978.2891273498535,1334,1
300,quadbright,18.0,5,0,693.0458545684814,693.044900894165,1452,1
301,quadbright,19.0,8,0,823.6777782440186,823.6770629882812,1398,1
302,quadbright,20.0,11,1,636.3770961761475,636.3739967346191,1388,1
303,quadbright,21.0,11,1,526.2489318847656,526.2439250946045,1397,1
304,quadbright,22.0,5,1,1187.0489120483398,1187.046766281128,1292,1
305,quadbright,23.0,14,1,659.5718860626221,659.5656871795654,1448,1
306,quadbright,24.0,17,1,657.9740047454834,657.9720973968506,1463,1
307,quadbright,25.0,12,0,822.796106338501,822.7949142456055,1084,1
308,quadbright,26.0,12,1,659.7330570220947,659.7309112548828,1118,1
309,quadbright,27.0,11,1,562.8652572631836,562.8631114959717,1223,1
310,quadbright,28.0,17,1,561.028242111206,561.0270500183105,1265,1
311,quadbright,29.0,16,1,670.464038848877,670.4578399658203,997,1
312,quadbright,30.0,20,1,626.2152194976807,626.2142658233643,1494,1
313,quadbright,5.0,2,1,197.58176803588867,647.9990482330322,953,1
314,quadbright,6.0,2,1,98.82187843322754,668.8709259033203,1286,1
315,quadbright,7.0,2,0,66.28108024597168,726.2341976165771,1029,1
316,quadbright,8.0,2,1,562.3738765716553,562.3629093170166,839,1
317,quadbright,9.0,2,0,832.2582244873047,832.2551250457764,1002,1
318,quadbright,10.0,8,1,527.7121067047119,527.7020931243896,1455,1
319,quadbright,11.0,8,1,461.5020751953125,461.4977836608887,1066,1
320,quadbright,12.0,2,0,835.3421688079834,835.3381156921387,826,1
321,quadbright,13.0,8,1,725.7568836212158,725.7506847381592,946,1
322,quadbright,14.0,11,1,527.0769596099854,527.0750522613525,856,1
323,quadbright,15.0,11,1,460.3619575500488,460.3550434112549,1171,1
324,quadbright,16.0,9,1,714.8370742797852,714.8349285125732,926,1
325,quadbright,17.0,11,1,528.0439853668213,528.0399322509766,851,1
326,quadbright,18.0,8,0,560.2567195892334,560.2529048919678,827,1
327,quadbright,19.0,11,1,534.9421501159668,534.9400043487549,1119,1
328,quadbright,20.0,11,1,527.8279781341553,527.8217792510986,1140,1
329,quadbright,21.0,9,1,625.8649826049805,625.8618831634521,817,1
330,quadbright,22.0,2,0,626.5048980712891,626.5039443969727,1405,1
331,quadbright,23.0,14,1,616.1561012268066,616.1539554595947,1252,1
332,quadbright,24.0,15,1,723.2468128204346,723.242998123169,1226,1
333,quadbright,25.0,14,0,295.46189308166504,295.4602241516113,1425,1
334,quadbright,26.0,11,0,715.37184715271,715.3708934783936,1399,1
335,quadbright,27.0,11,1,627.1111965179443,627.1102428436279,1229,1
336,quadbright,28.0,15,1,736.2890243530273,736.2868785858154,845,1
337,quadbright,29.0,16,1,658.6289405822754,658.6270332336426,1254,1
338,quadbright,30.0,19,1,657.5930118560791,657.5832366943359,1017,1
339,quadbright,5.0,2,1,166.62883758544922,823.5509395599365,1432,1
340,quadbright,6.0,2,1,99.51996803283691,722.2661972045898,1017,1
341,quadbright,7.0,5,0,98.95205497741699,1032.5860977172852,1427,1
342,quadbright,8.0,2,1,821.6900825500488,821.6879367828369,1228,1
343,quadbright,9.0,5,1,97.98908233642578,460.65402030944824,1454,1
344,quadbright,10.0,8,1,627.9232501983643,627.9211044311523,1063,1
345,quadbright,11.0,8,0,822.5991725921631,822.5932121276855,849,1
346,quadbright,12.0,5,0,661.0932350158691,661.0920429229736,1210,1
347,quadbright,13.0,8,1,658.5071086883545,658.5040092468262,943,1
348,quadbright,14.0,11,1,459.63382720947266,459.63191986083984,838,1
349,quadbright,15.0,11,1,824.4369029998779,824.4297504425049,1390,1
350,quadbright,16.0,9,0,667.259931564331,667.2549247741699,1209,1
351,quadbright,17.0,9,1,619.5690631866455,619.5681095123291,1407,1
352,quadbright,18.0,11,1,549.5669841766357,549.5643615722656,1292,1
353,quadbright,19.0,11,1,428.9052486419678,428.90429496765137,1291,1
354,quadbright,20.0,9,1,615.6589984893799,615.6578063964844,1318,1
355,quadbright,21.0,9,1,624.71604347229,624.7122287750244,1104,1
356,quadbright,22.0,5,0,626.9741058349609,626.9741058349609,829,1
357,quadbright,23.0,12,1,527.2989273071289,527.2939205169678,1055,1
358,quadbright,24.0,15,1,1021.934986114502,1021.9290256500244,1146,1
359,quadbright,25.0,15,1,460.7360363006592,460.73198318481445,1304,1
360,quadbright,26.0,12,1,823.5738277435303,823.5700130462646,1055,1
361,quadbright,27.0,9,0,715.7309055328369,715.7297134399414,1159,1
362,quadbright,28.0,15,0,593.1451320648193,593.1410789489746,1115,1
363,quadbright,29.0,15,1,516.455888748169,516.4549350738525,1477,1
364,quadbright,30.0,19,1,527.2259712219238,527.2228717803955,1269,1
365,quadbright,5.0,1,0,66.61081314086914,956.0868740081787,1085,1
366,quadbright,6.0,1,1,139.31894302368164,599.8561382293701,1007,1
367,quadbright,7.0,8,1,164.49594497680664,602.7600765228271,1364,1
368,quadbright,8.0,1,1,66.1158561706543,694.7488784790039,1365,1
369,quadbright,9.0,5,1,624.4568824768066,624.4521141052246,826,1
370,quadbright,10.0,6,1,756.9599151611328,756.9568157196045,1314,1
371,quadbright,11.0,9,1,603.2600402832031,603.2578945159912,948,1
372,quadbright,12.0,8,1,527.1618366241455,527.1561145782471,1120,1
373,quadbright,13.0,6,1,527.3168087005615,527.3158550262451,859,1
374,quadbright,14.0,9,1,527.8069972991943,527.8010368347168,1284,1
375,quadbright,15.0,9,0,934.0920448303223,934.0851306915283,1474,1
376,quadbright,16.0,11,0,726.5641689300537,726.560115814209,1415,1
377,quadbright,17.0,9,1,525.8047580718994,525.8009433746338,1028,1
378,quadbright,18.0,11,1,724.2686748504639,724.2648601531982,978,1
379,quadbright,19.0,9,1,659.6601009368896,659.6541404724121,1120,1
380,quadbright,20.0,9,1,593.7991142272949,593.7960147857666,1162,1
381,quadbright,21.0,8,0,725.067138671875,725.0611782073975,1288,1
382,quadbright,22.0,8,0,1045.4330444335938,1045.4320907592773,823,1
383,quadbright,23.0,12,1,793.3990955352783,793.3969497680664,1074,1
384,quadbright,24.0,14,1,797.4038124084473,797.4028587341309,1483,1
385,quadbright,25.0,15,1,591.8078422546387,591.804027557373,1183,1
386,quadbright,26.0,12,1,791.8829917907715,791.8810844421387,1032,1
387,quadbright,27.0,11,0,658.0462455749512,658.0440998077393,1153,1
388,quadbright,28.0,17,1,1055.8598041534424,1055.854082107544,927,1
389,quadbright,29.0,15,1,726.3288497924805,726.3257503509521,1095,1
390,quadbright,30.0,18,1,525.8102416992188,525.806188583374,1015,1
