trial,condition,eccentricity,magnitude,correct,srt_ms,keyboard_rt_ms,pre_change_ms,valid
1,control,5.0,20,1,99.73812103271484,527.1589756011963,1016,1
2,control,6.0,20,1,100.1429557800293,880.0780773162842,1075,1
3,control,7.0,20,1,198.52781295776367,693.640947341919,1107,1
4,control,8.0,20,1,98.4792709350586,429.36134338378906,1068,1
5,control,9.0,20,1,395.54786682128906,395.54381370544434,853,1
6,control,10.0,20,1,524.3480205535889,524.3468284606934,1411,1
7,control,11.0,20,1,484.65895652770996,484.65895652770996,1450,1
8,control,12.0,20,1,584.618091583252,584.6171379089355,1490,1
9,control,13.0,20,1,586.3277912139893,586.3268375396729,1398,1
10,control,14.0,20,1,592.7050113677979,592.6997661590576,852,1
11,control,15.0,20,1,593.8601493835449,593.858003616333,921,1
12,control,16.0,20,1,592.7891731262207,592.7848815917969,850,1
13,control,17.0,20,1,592.1061038970947,592.1032428741455,922,1
14,control,18.0,20,1,591.2210941314697,591.2201404571533,1080,1
15,control,19.0,20,1,585.5789184570312,585.5779647827148,1208,1
16,control,20.0,20,1,628.3199787139893,628.3168792724609,1141,1
17,control,21.0,20,1,724.0200042724609,724.0180969238281,883,1
18,control,22.0,20,1,600.9881496429443,600.9860038757324,1291,1
19,control,23.0,20,1,691.9639110565186,691.9608116149902,1293,1
20,control,24.0,20,1,714.8585319519043,714.857816696167,1089,1
21,control,25.0,20,1,624.1359710693359,624.1297721862793,1391,1
22,control,26.0,20,1,688.9553070068359,688.9441013336182,1070,1
23,control,27.0,20,1,692.1787261962891,692.1718120574951,988,1
24,control,28.0,20,1,691.9219493865967,691.9198036193848,1485,1
25,control,29.0,20,1,681.6120147705078,681.6110610961914,1340,1
26,control,30.0,20,0,1309.2012405395508,1309.2000484466553,838,1
27,control,5.0,20,1,91.55678749084473,594.3529605865479,1319,1
28,control,6.0,20,1,99.12490844726562,493.7911033630371,1420,1
29,control,7.0,20,1,101.44901275634766,495.75114250183105,1290,1
30,control,8.0,20,1,692.4922466278076,692.4872398376465,1190,1
31,control,9.0,20,1,682.0187568664551,682.0180416107178,1318,1
32,control,10.0,20,1,584.9599838256836,584.9592685699463,1237,1
33,control,11.0,20,1,592.1370983123779,592.1311378479004,985,1
34,control,12.0,20,1,494.9450492858887,494.94099617004395,1386,1
35,control,13.0,20,1,683.264970779419,683.2640171051025,970,1
36,control,14.0,20,1,599.0750789642334,599.0738868713379,1345,1
37,control,15.0,20,1,912.1921062469482,912.1911525726318,1188,1
38,control,16.0,20,1,593.1000709533691,593.0948257446289,988,1
39,control,17.0,20,1,606.4262390136719,606.4231395721436,853,1
40,control,18.0,20,1,594.0389633178711,594.0380096435547,1362,1
41,control,19.0,20,1,483.004093170166,483.0031394958496,1339,1
42,control,20.0,20,1,583.8799476623535,583.878755569458,1094,1
43,control,21.0,20,1,594.9256420135498,594.9249267578125,1429,1
44,control,22.0,20,1,690.7520294189453,690.7467842102051,905,1
45,control,23.0,20,1,493.96705627441406,493.96491050720215,1466,1
46,control,24.0,20,1,681.4830303192139,681.4820766448975,1073,1
47,control,25.0,20,1,692.2092437744141,692.2049522399902,1366,1
48,control,26.0,20,1,583.1379890441895,583.137035369873,1145,1
49,control,27.0,20,1,592.6048755645752,592.5979614257812,1081,1
50,control,28.0,20,1,593.4889316558838,593.4820175170898,828,1
51,control,29.0,20,1,590.6720161437988,590.6641483306885,1101,1
52,control,30.0,23,1,596.7528820037842,596.7509746551514,1427,1
53,control,5.0,17,1,98.27613830566406,692.0650005340576,1229,1
54,control,6.0,17,1,99.14588928222656,603.7821769714355,901,1
55,control,7.0,17,1,99.33590888977051,593.8208103179932,930,1
56,control,8.0,17,1,99.82180595397949,494.58885192871094,1430,1
57,control,9.0,17,1,595.8280563354492,595.8237648010254,1172,1
58,control,10.0,17,1,593.8348770141602,593.8308238983154,1128,1
59,control,11.0,17,1,98.52480888366699,493.55196952819824,1204,1
60,control,12.0,17,1,596.7690944671631,596.7669486999512,1169,1
61,control,13.0,17,1,493.63088607788086,493.6261177062988,1277,1
62,control,14.0,17,1,583.8890075683594,583.8878154754639,1150,1
63,control,15.0,17,1,622.2119331359863,622.2097873687744,1481,1
64,control,16.0,17,1,493.8349723815918,493.82495880126953,1042,1
65,control,17.0,17,1,529.1931629180908,529.1900634765625,1378,1
66,control,18.0,17,1,485.70990562438965,485.70990562438965,1372,1
67,control,19.0,17,1,493.9882755279541,493.9861297607422,1470,1
68,control,20.0,17,1,491.72401428222656,491.7151927947998,1266,1
69,control,21.0,17,1,494.2030906677246,494.19498443603516,987,1
70,control,22.0,17,1,492.81907081604004,492.8169250488281,1443,1
71,control,23.0,17,1,493.9849376678467,493.97802352905273,1045,1
72,control,24.0,17,1,494.9367046356201,494.9357509613037,1245,1
73,control,25.0,17,1,1880.119800567627,1880.1178932189941,1465,1
74,control,26.0,17,1,484.3587875366211,484.3578338623047,1340,1
75,control,27.0,17,1,485.0437641143799,485.04185676574707,1217,1
76,control,28.0,17,1,524.1589546203613,524.1570472717285,1304,1
77,control,29.0,17,1,493.61491203308105,493.61300468444824,1255,1
78,control,30.0,23,1,536.628007888794,536.6208553314209,1327,1
79,control,5.0,17,1,99.31373596191406,493.6978816986084,903,1
80,control,6.0,17,1,98.37484359741211,494.91310119628906,1280,1
81,control,7.0,17,1,99.09582138061523,404.10876274108887,1317,1
82,control,8.0,17,1,98.73390197753906,692.0139789581299,863,1
83,control,9.0,17,1,495.1760768890381,495.1751232147217,1450,1
84,control,10.0,17,1,392.86017417907715,392.8561210632324,1160,1
85,control,11.0,17,1,526.174783706665,526.170015335083,869,1
86,control,12.0,17,1,386.2941265106201,386.2931728363037,981,1
87,control,13.0,17,1,495.33700942993164,495.3327178955078,1319,1
88,control,14.0,17,1,404.8902988433838,404.88600730895996,1003,1
89,control,15.0,17,1,494.58980560302734,494.58789825439453,1144,1
90,control,16.0,17,1,394.8862552642822,394.8841094970703,1091,1
91,control,17.0,17,1,1428.1599521636963,1428.157091140747,945,1
92,control,18.0,17,1,494.1277503967285,494.1246509552002,985,1
93,control,19.0,17,1,526.7050266265869,526.6919136047363,1094,1
94,control,20.0,17,1,681.0832023620605,681.0822486877441,1423,1
95,control,21.0,17,1,593.0161476135254,593.0073261260986,1496,1
96,control,22.0,17,1,593.9908027648926,593.9879417419434,981,1
97,control,23.0,17,1,594.0451622009277,594.0442085266113,1232,1
98,control,24.0,17,1,494.4038391113281,494.4007396697998,905,1
99,control,25.0,17,1,593.5440063476562,593.5430526733398,1064,1
100,control,26.0,17,1,507.1430206298828,507.1399211883545,1356,1
101,control,27.0,17,1,596.8201160430908,596.8151092529297,1085,1
102,control,28.0,17,1,594.857931137085,594.8550701141357,1468,1
103,control,29.0,17,1,492.6619529724121,492.6600456237793,1041,1
104,control,30.0,20,1,494.89498138427734,494.89378929138184,1165,1
105,control,5.0,14,1,99.13325309753418,592.3671722412109,1030,1
106,control,6.0,14,1,98.94013404846191,394.9239253997803,815,1
107,control,7.0,14,1,494.6937561035156,494.68278884887695,1390,1
108,control,8.0,14,1,616.013765335083,616.0130500793457,1486,1
109,control,9.0,14,1,592.6060676574707,592.6032066345215,913,1
110,control,10.0,14,1,198.2438564300537,497.9069232940674,1410,1
111,control,11.0,14,1,596.2321758270264,596.229076385498,1091,1
112,control,12.0,14,1,491.81103706359863,491.8079376220703,1308,1
113,control,13.0,14,1,594.102144241333,594.0959453582764,814,1
114,control,14.0,14,1,496.8230724334717,496.81901931762695,1409,1
115,control,15.0,14,1,483.61921310424805,483.61825942993164,1416,1
116,control,16.0,14,1,1012.0339393615723,1012.0329856872559,1484,1
117,control,17.0,14,1,790.3637886047363,790.3599739074707,929,1
118,control,18.0,14,1,706.8519592285156,706.8479061126709,1282,1
119,control,19.0,14,1,629.0171146392822,629.0140151977539,1047,1
120,control,20.0,14,1,592.3547744750977,592.3519134521484,1359,1
121,control,21.0,14,1,604.388952255249,604.3851375579834,1149,1
122,control,22.0,14,1,627.7501583099365,627.7482509613037,1328,0
123,control,22.0,14,1,496.94085121154785,496.93894386291504,982,1
124,control,23.0,14,1,593.52707862854,593.5211181640625,1301,1
125,control,24.0,14,1,494.1551685333252,494.15135383605957,1183,1
126,control,25.0,14,1,681.4961433410645,681.4939975738525,1296,1
127,control,26.0,14,1,824.5959281921387,824.5940208435059,1153,1
128,control,27.0,14,1,590.5008316040039,590.4929637908936,1113,1
129,control,28.0,14,1,691.3020610809326,691.3001537322998,853,1
130,control,29.0,14,1,592.2849178314209,592.2820568084717,1114,1
131,control,30.0,20,1,593.350887298584,593.3489799499512,1163,1
132,control,5.0,14,1,98.76585006713867,404.4930934906006,1360,1
133,control,6.0,14,1,691.5099620819092,691.5030479431152,1281,1
134,control,7.0,14,1,99.52878952026367,596.1258411407471,1366,1
135,control,8.0,14,0,100.34298896789551,1805.3998947143555,1163,1
136,control,9.0,14,1,782.1009159088135,782.0999622344971,1481,1
137,control,10.0,14,1,723.9789962768555,723.9761352539062,1275,1
138,control,11.0,14,1,526.871919631958,526.8700122833252,1011,1
139,control,12.0,14,1,495.00584602355957,495.00179290771484,1299,1
140,control,13.0,14,1,584.5351219177246,584.5341682434082,1148,1
141,control,14.0,14,1,593.9598083496094,593.958854675293,872,1
142,control,15.0,14,1,494.8389530181885,494.83609199523926,1384,1
143,control,16.0,14,1,525.8078575134277,525.8071422576904,1115,1
144,control,17.0,14,1,527.74977684021,527.7481079101562,1483,1
145,control,18.0,14,1,496.1559772491455,496.1519241333008,864,1
146,control,19.0,14,1,395.00904083251953,395.0049877166748,1249,1
147,control,20.0,14,1,392.8840160369873,392.8818702697754,862,1
148,control,21.0,14,1,485.3477478027344,485.34703254699707,805,1
149,control,22.0,14,1,494.7800636291504,494.77624893188477,989,1
150,control,23.0,14,1,592.7648544311523,592.7510261535645,1297,1
151,control,24.0,14,1,494.6150779724121,494.6138858795166,1101,1
152,control,25.0,14,1,689.5313262939453,689.5260810852051,1030,1
153,control,26.0,14,1,494.1868782043457,494.1821098327637,1425,1
154,control,27.0,14,1,537.4720096588135,537.4670028686523,1286,1
155,control,28.0,14,1,494.2622184753418,494.2610263824463,1132,1
156,control,29.0,14,0,1003.835916519165,1003.8332939147949,1349,1
157,control,30.0,17,1,504.60314750671387,504.59814071655273,993,1
158,control,5.0,11,1,100.43096542358398,384.7470283508301,845,1
159,control,6.0,11,1,97.37491607666016,493.3128356933594,1497,1
160,control,7.0,11,1,536.034107208252,536.027193069458,1366,1
161,control,8.0,17,0,105.70693016052246,1483.0939769744873,1334,1
162,control,9.0,11,1,484.19690132141113,484.1957092285156,1064,1
163,control,10.0,11,1,592.362642288208,592.3569202423096,955,1
164,control,11.0,11,1,383.93306732177734,383.93187522888184,1438,1
165,control,12.0,11,1,297.36900329589844,594.8829650878906,1336,1
166,control,13.0,11,1,498.43406677246094,498.4309673309326,1384,1
167,control,14.0,11,1,502.74014472961426,502.7351379394531,1306,1
168,control,15.0,11,1,601.9010543823242,601.8941402435303,1371,1
169,control,16.0,11,1,594.8131084442139,594.8119163513184,1155,0
170,control,16.0,11,1,496.84691429138184,496.8440532684326,1253,1
171,control,17.0,11,1,681.6163063049316,681.6151142120361,881,1
172,control,18.0,11,0,1506.9029331207275,1506.9019794464111,938,1
173,control,19.0,11,1,724.616289138794,724.6110439300537,1441,1
174,control,20.0,11,1,494.6179389953613,494.6131706237793,1269,1
175,control,21.0,11,1,492.2802448272705,492.27428436279297,1494,1
176,control,22.0,11,1,593.3282375335693,593.3201313018799,1256,1
177,control,23.0,11,1,494.0757751464844,494.07172203063965,1463,1
178,control,24.0,11,1,493.8209056854248,493.8170909881592,1083,1
179,control,25.0,11,1,901.6759395599365,901.6711711883545,964,1
180,control,26.0,11,1,593.9149856567383,593.9121246337891,1086,1
181,control,27.0,11,1,499.0270137786865,499.0241527557373,1376,1
182,control,28.0,11,0,1484.248161315918,1484.243392944336,1188,1
183,control,29.0,17,1,597.0909595489502,597.0878601074219,1060,1
184,control,30.0,17,1,486.8040084838867,486.8030548095703,1282,1
185,control,5.0,11,1,97.9621410369873,492.83409118652344,1472,1
186,control,6.0,11,1,98.99687767028809,593.3830738067627,838,1
187,control,7.0,11,1,99.06530380249023,626.2531280517578,977,1
188,control,8.0,20,1,98.96993637084961,394.6669101715088,917,1
189,control,9.0,11,1,791.2890911102295,791.2859916687012,1080,1
190,control,10.0,11,1,592.6640033721924,592.6589965820312,1090,1
191,control,11.0,11,1,596.1060523986816,596.1019992828369,1460,1
192,control,12.0,11,1,582.9739570617676,582.9727649688721,1189,1
193,control,13.0,11,1,592.9851531982422,592.9758548736572,960,1
194,control,14.0,11,1,594.1839218139648,594.1839218139648,876,1
195,control,15.0,11,1,604.1038036346436,604.1007041931152,940,1
196,control,16.0,11,1,595.1542854309082,595.1511859893799,947,1
197,control,17.0,11,1,500.93889236450195,500.93793869018555,1039,1
198,control,18.0,14,1,791.7218208312988,791.7191982269287,857,1
199,control,19.0,11,1,583.1470489501953,583.1458568572998,1268,1
200,control,20.0,11,1,593.1980609893799,593.1949615478516,1287,1
201,control,21.0,11,1,593.743085861206,593.7399864196777,1070,1
202,control,22.0,11,1,692.108154296875,692.101240158081,1115,1
203,control,23.0,11,1,592.3912525177002,592.3850536346436,1357,1
204,control,24.0,11,0,593.573808670044,593.5518741607666,836,1
205,control,25.0,11,1,593.3990478515625,593.3942794799805,831,1
206,control,26.0,11,1,791.28098487854,791.2778854370117,932,1
207,control,27.0,11,1,724.1389751434326,724.1368293762207,1072,1
208,control,28.0,14,1,790.7698154449463,790.7650470733643,1314,1
209,control,29.0,17,1,594.1810607910156,594.1779613494873,1297,1
210,control,30.0,14,1,605.158805847168,605.1549911499023,909,1
211,control,5.0,8,1,104.38299179077148,599.1208553314209,999,1
212,control,6.0,8,1,131.58297538757324,525.4709720611572,1267,1
213,control,7.0,8,1,198.43602180480957,592.8378105163574,1242,1
214,control,8.0,20,0,98.04201126098633,2322.761058807373,1498,1
215,control,9.0,8,1,593.4820175170898,593.4810638427734,1039,1
216,control,10.0,8,1,593.6529636383057,593.6508178710938,894,1
217,control,11.0,8,1,592.5979614257812,592.5931930541992,950,1
218,control,12.0,8,1,1000.694990158081,1000.6918907165527,860,1
219,control,13.0,8,1,583.4879875183105,583.4858417510986,1238,1
220,control,14.0,8,1,1102.278232574463,1102.2751331329346,857,1
221,control,15.0,8,1,496.2928295135498,496.2878227233887,941,1
222,control,16.0,8,1,593.4767723083496,593.4720039367676,1306,1
223,control,17.0,8,1,592.7557945251465,592.7531719207764,876,1
224,control,18.0,14,1,395.3361511230469,395.33519744873047,1267,1
225,control,19.0,8,1,493.37220191955566,493.36910247802734,1479,1
226,control,20.0,8,1,1023.871898651123,1023.8690376281738,952,1
227,control,21.0,8,1,979.1595935821533,979.1579246520996,1175,1
228,control,22.0,8,1,584.6500396728516,584.648847579956,869,1
229,control,23.0,8,0,892.2228813171387,892.2209739685059,1383,1
230,control,24.0,14,1,494.1098690032959,494.10510063171387,1298,1
231,control,25.0,8,1,879.7743320465088,879.7731399536133,1124,1
232,control,26.0,8,1,494.3230152130127,494.31896209716797,1203,1
233,control,27.0,8,1,814.5239353179932,814.5229816436768,1397,1
234,control,28.0,14,1,527.1768569946289,527.1751880645752,1186,1
235,control,29.0,15,1,824.9568939208984,824.9537944793701,976,1
236,control,30.0,14,0,823.1899738311768,823.1849670410156,1240,1
237,control,5.0,8,1,98.55198860168457,484.1179847717285,966,1
238,control,6.0,8,1,99.1828441619873,525.3989696502686,1354,1
239,control,7.0,8,1,693.0849552154541,693.0840015411377,1036,1
240,control,8.0,21,1,196.65884971618652,592.14186668396,908,0
241,control,8.0,21,1,98.83880615234375,507.28774070739746,848,1
242,control,9.0,8,1,198.29297065734863,989.8991584777832,1244,1
243,control,10.0,8,1,526.0071754455566,526.0050296783447,1017,1
244,control,11.0,8,1,427.37793922424316,427.37364768981934,1052,1
245,control,12.0,8,1,494.2641258239746,494.2610263824463,1006,1
246,control,13.0,8,1,591.562032699585,591.5582180023193,1137,1
247,control,14.0,8,1,495.27502059936523,495.272159576416,1110,1
248,control,15.0,8,1,411.7288589477539,411.7259979248047,1133,1
249,control,16.0,8,1,494.7779178619385,494.77577209472656,1419,1
250,control,17.0,8,0,793.9519882202148,793.9510345458984,904,1
251,control,18.0,12,1,703.639030456543,703.6337852478027,1175,1
252,control,19.0,8,0,1003.018856048584,1003.0159950256348,1297,1
253,control,20.0,8,1,591.7701721191406,591.7670726776123,1086,1
254,control,21.0,8,1,542.8109169006348,542.8087711334229,1493,1
255,control,22.0,8,1,1112.4873161315918,1112.4863624572754,900,1
256,control,23.0,11,1,692.514181137085,692.5113201141357,926,1
257,control,24.0,14,1,598.1340408325195,598.132848739624,1142,1
258,control,25.0,8,0,813.5008811950684,813.499927520752,1122,1
259,control,26.0,8,0,697.2758769989014,697.2739696502686,1157,1
260,control,27.0,8,1,626.1599063873291,626.1577606201172,1362,1
261,control,28.0,12,1,823.0290412902832,823.0271339416504,1005,1
262,control,29.0,15,1,493.94989013671875,493.9436912536621,1069,1
263,control,30.0,17,1,802.5317192077637,802.5286197662354,1007,1
264,control,5.0,5,1,99.73382949829102,501.5738010406494,1394,1
265,control,6.0,5,1,198.41694831848145,794.248104095459,877,1
266,control,7.0,5,1,591.5322303771973,591.529369354248,1145,1
267,control,8.0,21,1,99.1830825805664,483.2761287689209,1456,1
268,control,9.0,5,1,101.98187828063965,503.65304946899414,1335,1
269,control,10.0,5,1,99.20120239257812,494.0800666809082,887,1
270,control,11.0,5,1,98.36912155151367,493.73531341552734,809,1
271,control,12.0,5,1,683.837890625,683.8369369506836,1255,1
272,control,13.0,5,1,924.062967300415,924.0598678588867,1127,1
273,control,14.0,5,1,792.9971218109131,792.9940223693848,866,1
274,control,15.0,5,1,1385.0340843200684,1385.0319385528564,893,0
275,control,15.0,5,1,101.29094123840332,702.2528648376465,836,1
276,control,16.0,5,1,789.8619174957275,789.8597717285156,897,1
277,control,17.0,11,1,584.86008644104,584.8591327667236,1222,1
278,control,18.0,12,1,493.1039810180664,493.1032657623291,1350,1
279,control,19.0,11,1,791.4559841156006,791.450023651123,1259,1
280,control,20.0,5,0,782.4180126190186,782.4170589447021,1019,1
281,control,21.0,5,1,594.5110321044922,594.506025314331,1313,0
282,control,21.0,5,0,990.8108711242676,990.8092021942139,1188,1
283,control,22.0,5,0,604.057788848877,604.0561199188232,844,1
284,control,23.0,11,1,594.5949554443359,594.5940017700195,1334,1
285,control,24.0,12,1,493.45993995666504,493.4568405151367,1051,1
286,control,25.0,11,1,593.9428806304932,593.9409732818604,1094,1
287,control,26.0,11,1,495.4538345336914,495.4500198364258,1432,1
288,control,27.0,5,1,691.5769577026367,691.5740966796875,1311,1
289,control,28.0,12,1,394.9551582336426,394.94800567626953,1132,1
290,control,29.0,14,1,498.6109733581543,498.60095977783203,1454,1
291,control,30.0,17,1,492.9821491241455,492.9790496826172,1148,1
292,control,5.0,5,1,99.11108016967773,394.09518241882324,849,1
293,control,6.0,5,1,103.93118858337402,436.63501739501953,1176,1
294,control,7.0,5,1,99.31492805480957,398.79894256591797,816,1
295,control,8.0,20,1,99.55096244812012,396.1050510406494,1356,1
296,control,9.0,5,1,484.62581634521484,484.62486267089844,1198,1
297,control,10.0,5,1,533.0221652984619,533.0181121826172,1187,1
298,control,11.0,5,0,687.4849796295166,687.4837875366211,823,1
299,control,12.0,5,1,387.99500465393066,387.99500465393066,1323,1
300,control,13.0,5,1,496.25682830810547,496.25396728515625,845,1
301,control,14.0,5,0,792.8252220153809,792.8221225738525,1352,1
302,control,15.0,5,1,681.5581321716309,681.5569400787354,1105,1
303,control,16.0,5,1,494.22693252563477,494.22383308410645,1328,1
304,control,17.0,11,1,526.893138885498,526.8890857696533,836,1
305,control,18.0,11,1,391.5998935699463,391.5989398956299,1497,1
306,control,19.0,11,1,593.7731266021729,593.7700271606445,1135,1
307,control,20.0,8,0,385.8938217163086,385.8928680419922,1154,1
308,control,21.0,8,1,485.6679439544678,485.66699028015137,1460,1
309,control,22.0,8,1,425.7040023803711,425.7018566131592,825,1
310,control,23.0,9,1,494.5993423461914,494.5962429046631,1461,1
311,control,24.0,12,0,725.1729965209961,725.1720428466797,1107,1
312,control,25.0,11,0,726.1886596679688,726.1860370635986,1160,1
313,control,26.0,11,0,826.0259628295898,826.024055480957,1247,1
314,control,27.0,5,0,692.4717426300049,692.4707889556885,829,1
315,control,28.0,11,1,597.0408916473389,597.0380306243896,1068,1
316,control,29.0,14,1,496.9463348388672,496.94108963012695,1233,1
317,control,30.0,15,1,580.8987617492676,580.8980464935303,1281,1
318,control,5.0,2,0,99.74074363708496,1194.856882095337,943,1
319,control,6.0,2,0,695.8839893341064,695.8801746368408,1130,1
320,control,7.0,2,1,100.52013397216797,792.7331924438477,821,1
321,control,8.0,20,1,493.8802719116211,493.8771724700928,994,1
322,control,9.0,2,1,594.0070152282715,594.0070152282715,939,1
323,control,10.0,2,0,692.664623260498,692.6629543304443,1150,1
324,control,11.0,8,1,507.617712020874,507.6148509979248,835,1
325,control,12.0,2,1,791.8658256530762,791.862964630127,956,1
326,control,13.0,2,1,716.4890766143799,716.4881229400635,863,1
327,control,14.0,8,1,501.24382972717285,501.24073028564453,1424,1
328,control,15.0,2,0,792.7408218383789,792.7389144897461,887,1
329,control,16.0,2,0,702.2731304168701,702.2678852081299,1081,1
330,control,17.0,9,1,515.6981945037842,515.6970024108887,1402,1
331,control,18.0,11,1,694.0879821777344,694.084882736206,1091,1
332,control,19.0,9,1,903.3360481262207,903.3310413360596,1245,1
333,control,20.0,11,1,582.4332237243652,582.4320316314697,1241,1
334,control,21.0,8,0,493.5109615325928,493.50595474243164,1081,1
335,control,22.0,8,1,691.6379928588867,691.636323928833,1056,1
336,control,23.0,9,1,693.7170028686523,693.713903427124,1198,1
337,control,24.0,14,1,697.455883026123,697.4527835845947,809,1
338,control,25.0,12,1,601.9101142883301,601.9041538238525,1100,1
339,control,26.0,12,1,694.7908401489258,694.7870254516602,1289,1
340,control,27.0,8,1,593.8820838928223,593.8780307769775,988,1
341,control,28.0,11,1,692.8117275238037,692.8079128265381,953,1
342,control,29.0,12,1,725.4281044006348,725.4259586334229,1250,1
343,control,30.0,15,1,1377.1812915802002,1377.1781921386719,1053,1
344,control,5.0,5,0,98.26087951660156,890.8400535583496,825,1
345,control,6.0,5,1,100.60405731201172,494.13204193115234,1433,1
346,control,7.0,2,1,99.37095642089844,894.6681022644043,1269,1
347,control,8.0,19,1,504.4598579406738,504.4569969177246,1246,1
348,control,9.0,2,1,838.1068706512451,838.1040096282959,1089,1
349,control,10.0,5,1,525.0570774078369,525.054931640625,1267,1
350,control,11.0,8,1,594.1309928894043,594.127893447876,1303,1
351,control,12.0,2,0,296.4448928833008,1581.8610191345215,998,1
352,control,13.0,2,1,788.8607978820801,788.8588905334473,801,1
353,control,14.0,8,1,495.97787857055664,495.9731101989746,1368,1
354,control,15.0,5,1,492.7940368652344,492.78903007507324,1318,1
355,control,16.0,5,1,691.878080368042,691.8649673461914,1038,1
356,control,17.0,9,0,494.43817138671875,494.43721771240234,1290,1
357,control,18.0,9,1,822.559118270874,822.5531578063965,1097,1
358,control,19.0,9,1,978.6820411682129,978.6810874938965,1016,1
359,control,20.0,11,1,493.99399757385254,493.9877986907959,1145,1
360,control,21.0,9,0,702.9099464416504,702.9061317443848,1263,1
361,control,22.0,6,0,735.0010871887207,734.9963188171387,1088,1
362,control,23.0,8,0,724.4501113891602,724.4479656219482,1054,1
363,control,24.0,14,1,728.518009185791,728.5170555114746,868,1
364,control,25.0,12,1,626.7321109771729,626.7309188842773,841,1
365,control,26.0,12,1,792.5429344177246,792.5369739532471,1354,1
366,control,27.0,8,1,595.808744430542,595.8068370819092,1418,1
367,control,28.0,9,0,979.3498516082764,979.34889793396,1196,1
368,control,29.0,12,0,1385.2710723876953,1385.261058807373,1351,1
369,control,30.0,14,1,1087.8851413726807,1087.8841876983643,1271,1
370,control,5.0,8,1,98.89101982116699,493.90697479248047,1035,1
371,control,6.0,5,1,99.50399398803711,591.5400981903076,1374,1
372,control,7.0,1,0,98.90985488891602,791.5670871734619,1049,1
373,control,8.0,19,1,99.03883934020996,686.3160133361816,1137,1
374,control,9.0,1,0,98.85716438293457,692.5480365753174,1055,1
375,control,10.0,5,1,692.2895908355713,692.2879219055176,1194,1
376,control,11.0,6,1,99.17736053466797,692.5301551818848,1009,1
377,control,12.0,5,1,693.1800842285156,693.1791305541992,1500,1
378,control,13.0,1,0,1210.5920314788818,1210.5913162231445,841,1
379,control,14.0,6,1,683.5949420928955,683.5939884185791,893,1
380,control,15.0,5,0,1781.6250324249268,1781.6197872161865,1062,1
381,control,16.0,5,0,826.9522190093994,826.9491195678711,1269,1
382,control,17.0,11,1,493.441104888916,493.4389591217041,1126,1
383,control,18.0,9,0,825.0398635864258,825.0348567962646,888,1
384,control,19.0,8,0,990.2520179748535,990.2510643005371,1018,1
385,control,20.0,9,1,780.8890342712402,780.8880805969238,934,1
386,control,21.0,11,1,492.0508861541748,492.0501708984375,963,1
387,control,22.0,8,0,780.72190284729,780.7197570800781,1346,1
388,control,23.0,9,1,719.3677425384521,719.3667888641357,1153,1
389,control,24.0,13,1,693.3150291442871,693.3119297027588,918,1
390,control,25.0,11,1,1428.7238121032715,1428.7219047546387,1172,1
391,control,26.0,11,1,593.2552814483643,593.2512283325195,1384,1
392,control,27.0,6,0,682.2021007537842,682.2009086608887,940,1
393,control,28.0,11,1,615.1139736175537,615.1130199432373,892,1
1,quadbright,5.0,20,1,98.34480285644531,493.8068389892578,1234,1
2,quadbright,6.0,20,1,88.7758731842041,484.6630096435547,1202,1
3,quadbright,7.0,20,1,99.1201400756836,502.74205207824707,1197,1
4,quadbright,8.0,20,1,99.25174713134766,395.2507972717285,887,1
5,quadbright,9.0,20,1,493.6699867248535,493.6668872833252,847,1
6,quadbright,10.0,20,1,394.5639133453369,394.5598602294922,1066,1
7,quadbright,11.0,20,1,592.2789573669434,592.2739505767822,1267,1
8,quadbright,12.0,20,1,689.7721290588379,689.7690296173096,1415,1
9,quadbright,13.0,20,1,484.1299057006836,484.1289520263672,1471,1
10,quadbright,14.0,20,1,627.568244934082,627.5660991668701,1144,1
11,quadbright,15.0,20,1,682.1820735931396,682.1808815002441,1426,1
12,quadbright,16.0,20,1,592.56911277771,592.5641059875488,1012,1
13,quadbright,17.0,20,1,591.8269157409668,591.8121337890625,1148,1
14,quadbright,18.0,20,1,603.4543514251709,603.4502983093262,1313,1
15,quadbright,19.0,20,1,591.7868614196777,591.7830467224121,1335,1
16,quadbright,20.0,20,1,503.40771675109863,503.4048557281494,1018,1
17,quadbright,21.0,20,1,594.3171977996826,594.3160057067871,1074,1
18,quadbright,22.0,20,1,594.1450595855713,594.1402912139893,931,1
19,quadbright,23.0,20,1,601.6719341278076,601.660966873169,1401,1
20,quadbright,24.0,20,1,593.9698219299316,593.9679145812988,1297,1
21,quadbright,25.0,20,1,593.0328369140625,593.0259227752686,1276,1
22,quadbright,26.0,20,1,625.0860691070557,625.0829696655273,917,1
23,quadbright,27.0,20,1,600.4199981689453,600.4090309143066,1026,1
24,quadbright,28.0,20,1,1211.7061614990234,1211.705207824707,801,1
25,quadbright,29.0,20,1,591.9740200042725,591.9721126556396,1146,1
26,quadbright,30.0,20,1,692.7149295806885,692.7108764648438,906,1
27,quadbright,5.0,20,1,99.2441177368164,1286.323070526123,1242,1
28,quadbright,6.0,20,1,98.85287284851074,692.8629875183105,1131,1
29,quadbright,7.0,20,1,98.33765029907227,692.7249431610107,1303,1
30,quadbright,8.0,20,1,98.66809844970703,1574.8910903930664,864,1
31,quadbright,9.0,20,1,628.4232139587402,628.4201145172119,883,1
32,quadbright,10.0,20,1,494.43984031677246,494.43507194519043,1168,1
33,quadbright,11.0,20,1,492.89512634277344,492.8882122039795,971,1
34,quadbright,12.0,20,1,695.0798034667969,695.0788497924805,1312,1
35,quadbright,13.0,20,1,583.7979316711426,583.7979316711426,913,0
36,quadbright,13.0,20,1,681.8630695343018,681.8609237670898,1138,1
37,quadbright,14.0,20,1,593.1687355041504,593.1649208068848,962,1
38,quadbright,15.0,20,1,484.62891578674316,484.62677001953125,920,1
39,quadbright,16.0,20,1,693.1366920471191,693.1347846984863,1117,1
40,quadbright,17.0,20,1,528.5229682922363,528.5189151763916,1256,1
41,quadbright,18.0,20,1,694.7309970855713,694.727897644043,894,1
42,quadbright,19.0,20,1,495.8178997039795,495.81408500671387,1438,1
43,quadbright,20.0,20,1,813.1790161132812,813.1778240203857,1105,1
44,quadbright,21.0,20,1,692.6720142364502,692.6701068878174,1133,1
45,quadbright,22.0,20,1,593.1980609893799,593.1949615478516,1095,1
46,quadbright,23.0,20,1,605.6020259857178,605.5989265441895,889,1
47,quadbright,24.0,20,1,723.9532470703125,723.9480018615723,1344,1
48,quadbright,25.0,20,1,1394.798994064331,1394.7970867156982,1408,1
49,quadbright,26.0,20,1,1506.0043334960938,1506.0033798217773,1084,1
50,quadbright,27.0,20,1,582.366943359375,582.3659896850586,1093,1
51,quadbright,28.0,20,1,790.7578945159912,790.7547950744629,1117,1
52,quadbright,29.0,20,1,696.1307525634766,696.1278915405273,1067,1
53,quadbright,30.0,20,1,1130.77712059021,1130.7752132415771,1206,1
54,quadbright,5.0,17,1,99.69687461853027,593.4121608734131,1419,1
55,quadbright,6.0,17,1,97.83291816711426,492.4509525299072,1006,1
56,quadbright,7.0,17,1,99.0591049194336,405.52401542663574,1236,1
57,quadbright,8.0,17,1,98.43206405639648,394.3450450897217,967,1
58,quadbright,9.0,17,1,503.75986099243164,503.7529468536377,1462,1
59,quadbright,10.0,17,1,494.1370487213135,494.13490295410156,1054,1
60,quadbright,11.0,17,1,504.4748783111572,504.472017288208,1177,1
61,quadbright,12.0,17,1,702.7459144592285,702.7442455291748,1325,1
62,quadbright,13.0,17,1,491.93596839904785,491.93286895751953,1071,1
63,quadbright,14.0,17,1,518.6958312988281,518.6948776245117,1398,1
64,quadbright,15.0,17,1,525.8359909057617,525.8269309997559,964,1
65,quadbright,16.0,17,1,526.9579887390137,526.9548892974854,933,1
66,quadbright,17.0,17,1,593.3151245117188,593.3048725128174,932,1
67,quadbright,18.0,17,1,592.170238494873,592.1692848205566,892,1
68,quadbright,19.0,17,1,584.8619937896729,584.8598480224609,987,1
69,quadbright,20.0,17,1,682.4228763580322,682.4209690093994,1282,1
70,quadbright,21.0,17,1,592.0679569244385,592.0639038085938,1416,1
71,quadbright,22.0,17,1,593.9419269561768,593.9340591430664,1039,1
72,quadbright,23.0,17,1,495.0230121612549,495.0220584869385,1104,1
73,quadbright,24.0,17,1,494.7969913482666,494.7948455810547,1106,1
74,quadbright,25.0,17,1,495.65887451171875,495.6526756286621,1247,1
75,quadbright,26.0,17,1,484.4241142272949,484.4231605529785,1400,1
76,quadbright,27.0,17,1,493.72291564941406,493.7148094177246,1158,1
77,quadbright,28.0,17,1,692.6920413970947,692.6913261413574,921,1
78,quadbright,29.0,17,1,691.0228729248047,691.0171508789062,1427,1
79,quadbright,30.0,17,0,1088.9348983764648,1088.9337062835693,1025,1
80,quadbright,5.0,17,1,98.14691543579102,492.5498962402344,884,1
81,quadbright,6.0,17,1,98.87194633483887,526.7419815063477,1124,1
82,quadbright,7.0,17,1,99.69401359558105,427.2439479827881,1467,1
83,quadbright,8.0,17,1,494.01211738586426,494.01021003723145,1482,1
84,quadbright,9.0,17,1,398.1180191040039,398.1139659881592,1405,1
85,quadbright,10.0,17,1,494.83799934387207,494.83275413513184,879,1
86,quadbright,11.0,17,1,495.9979057312012,495.99504470825195,1221,1
87,quadbright,12.0,17,1,495.37086486816406,495.3639507293701,1049,1
88,quadbright,13.0,17,1,493.82710456848145,493.82495880126953,994,1
89,quadbright,14.0,17,1,484.6489429473877,484.6489429473877,1331,1
90,quadbright,15.0,17,1,592.6079750061035,592.6048755645752,899,1
91,quadbright,16.0,17,1,494.91119384765625,494.91000175476074,1367,1
92,quadbright,17.0,17,1,585.0498676300049,585.0489139556885,1024,1
93,quadbright,18.0,17,1,525.9346961975098,525.933027267456,1311,1
94,quadbright,19.0,17,1,625.0009536743164,624.9890327453613,1410,1
95,quadbright,20.0,17,1,1624.9339580535889,1624.927043914795,851,1
96,quadbright,21.0,17,1,728.4350395202637,728.4319400787354,1122,1
97,quadbright,22.0,17,1,777.512788772583,777.5118350982666,1207,1
98,quadbright,23.0,17,1,504.1170120239258,504.11319732666016,931,1
99,quadbright,24.0,17,1,693.3648586273193,693.3577060699463,1277,1
100,quadbright,25.0,17,1,979.7852039337158,979.7842502593994,969,1
101,quadbright,26.0,17,1,484.3921661376953,484.3912124633789,903,1
102,quadbright,27.0,17,0,593.1761264801025,593.1670665740967,1246,1
103,quadbright,28.0,17,1,702.7549743652344,702.7480602264404,919,1
104,quadbright,29.0,17,1,692.4488544464111,692.4440860748291,1196,1
105,quadbright,30.0,20,1,593.6830043792725,593.6799049377441,1121,1
106,quadbright,5.0,14,1,197.15023040771484,494.3244457244873,921,1
107,quadbright,6.0,14,1,100.04520416259766,394.8822021484375,887,1
108,quadbright,7.0,14,1,99.29823875427246,592.5619602203369,938,1
109,quadbright,8.0,14,0,395.91097831726074,395.90930938720703,1301,1
110,quadbright,9.0,14,1,494.11892890930176,494.11606788635254,1344,1
111,quadbright,10.0,14,1,495.09620666503906,495.09119987487793,1196,1
112,quadbright,11.0,14,1,503.66783142089844,503.662109375,1073,1
113,quadbright,12.0,14,1,494.51184272766113,494.5108890533447,957,1
114,quadbright,13.0,14,1,593.4808254241943,593.477725982666,1233,1
115,quadbright,14.0,14,1,583.5521221160889,583.5509300231934,1302,0
116,quadbright,14.0,14,1,593.5227870941162,593.5180187225342,1137,1
117,quadbright,15.0,14,1,490.476131439209,490.47231674194336,994,1
118,quadbright,16.0,14,1,493.4210777282715,493.41487884521484,1291,1
119,quadbright,17.0,14,1,592.0109748840332,592.0071601867676,1368,1
120,quadbright,18.0,14,1,494.9970245361328,494.9960708618164,828,1
121,quadbright,19.0,14,1,492.4600124359131,492.45405197143555,1382,1
122,quadbright,20.0,14,1,792.4590110778809,792.4580574035645,814,1
123,quadbright,21.0,14,1,495.434045791626,495.43309211730957,1052,1
124,quadbright,22.0,14,1,493.29519271850586,493.29209327697754,912,1
125,quadbright,23.0,14,1,682.0480823516846,682.0471286773682,833,1
126,quadbright,24.0,14,1,583.2829475402832,583.2819938659668,1366,1
127,quadbright,25.0,14,1,1417.9291725158691,1417.9229736328125,1308,1
128,quadbright,26.0,14,1,495.635986328125,495.6321716308594,1196,1
129,quadbright,27.0,20,1,789.3791198730469,789.3729209899902,916,1
130,quadbright,28.0,14,0,1031.7351818084717,1031.7330360412598,1370,1
131,quadbright,29.0,14,0,792.1168804168701,792.1149730682373,897,1
132,quadbright,30.0,20,1,633.8958740234375,633.8918209075928,1244,1
133,quadbright,5.0,14,1,97.69797325134277,583.4701061248779,1239,1
134,quadbright,6.0,14,1,97.53108024597168,595.4511165618896,976,1
135,quadbright,7.0,14,1,98.4349250793457,583.5018157958984,1428,1
136,quadbright,8.0,17,1,198.2443332672119,680.7832717895508,807,1
137,quadbright,9.0,14,1,207.4117660522461,699.368953704834,806,0
138,quadbright,9.0,14,1,582.6797485351562,582.6797485351562,916,1
139,quadbright,10.0,14,1,593.5649871826172,593.5590267181396,1032,0
140,quadbright,10.0,14,1,525.0771045684814,525.0723361968994,1156,1
141,quadbright,11.0,14,1,99.00903701782227,626.1680126190186,810,1
142,quadbright,12.0,14,1,394.1349983215332,394.1309452056885,848,1
143,quadbright,13.0,14,1,592.5030708312988,592.498779296875,1238,1
144,quadbright,14.0,14,1,491.8489456176758,491.84370040893555,1037,1
145,quadbright,15.0,14,1,604.2449474334717,604.241132736206,1020,1
146,quadbright,16.0,14,1,495.847225189209,495.84412574768066,1314,1
147,quadbright,17.0,14,1,494.8282241821289,494.826078414917,1084,1
148,quadbright,18.0,14,1,503.51405143737793,503.5109519958496,1281,1
149,quadbright,19.0,14,1,627.9690265655518,627.9678344726562,1499,1
150,quadbright,20.0,14,1,783.7398052215576,783.7398052215576,1355,1
151,quadbright,21.0,14,0,2100.8880138397217,2100.8870601654053,827,1
152,quadbright,22.0,14,1,900.5818367004395,900.5780220031738,868,1
153,quadbright,23.0,14,1,592.0379161834717,592.033863067627,823,1
154,quadbright,24.0,14,1,594.4271087646484,594.4249629974365,1362,1
155,quadbright,25.0,14,1,989.9508953094482,989.9499416351318,885,1
156,quadbright,26.0,14,0,3497.5221157073975,3497.5199699401855,973,1
157,quadbright,27.0,20,1,594.6919918060303,594.6910381317139,1098,1
158,quadbright,28.0,17,1,592.343807220459,592.336893081665,1093,0
159,quadbright,28.0,17,1,494.2662715911865,494.2631721496582,1393,1
160,quadbright,29.0,17,1,503.8158893585205,503.8137435913086,1264,1
161,quadbright,30.0,18,1,482.9988479614258,482.9978942871094,959,1
162,quadbright,5.0,11,1,99.07889366149902,494.1678047180176,913,1
163,quadbright,6.0,11,1,98.30570220947266,493.7889575958252,900,1
164,quadbright,7.0,11,1,131.35218620300293,526.7388820648193,1163,1
165,quadbright,8.0,17,1,96.93479537963867,492.59185791015625,1331,1
166,quadbright,9.0,11,1,905.4710865020752,905.4679870605469,821,1
167,quadbright,10.0,11,1,592.8120613098145,592.803955078125,1285,1
168,quadbright,11.0,11,0,1177.0050525665283,1177.0031452178955,1467,1
169,quadbright,12.0,11,0,891.2687301635742,891.2649154663086,905,1
170,quadbright,13.0,11,1,691.676139831543,691.673994064331,1057,1
171,quadbright,14.0,11,1,587.3100757598877,587.3081684112549,935,1
172,quadbright,15.0,11,1,1407.0918560028076,1407.0909023284912,1411,1
173,quadbright,16.0,11,1,584.4030380249023,584.4020843505859,1159,1
174,quadbright,17.0,11,1,100.81291198730469,2309.7801208496094,989,1
175,quadbright,18.0,11,1,493.3657646179199,493.35670471191406,1459,1
176,quadbright,19.0,11,1,615.6289577484131,615.6268119812012,1122,1
177,quadbright,20.0,11,1,804.9840927124023,804.980993270874,910,1
178,quadbright,21.0,17,1,497.34020233154297,497.33710289001465,1313,1
179,quadbright,22.0,11,1,594.0990447998047,594.0980911254883,935,1
180,quadbright,23.0,11,1,889.4820213317871,889.4791603088379,1426,1
181,quadbright,24.0,11,0,1020.8251476287842,1020.8220481872559,969,1
182,quadbright,25.0,11,0,1878.3328533172607,1878.3280849456787,1066,1
183,quadbright,26.0,17,1,498.03614616394043,498.0330467224121,1357,1
184,quadbright,27.0,18,1,484.36903953552246,484.36808586120605,1489,1
185,quadbright,28.0,17,1,780.4837226867676,780.4827690124512,1132,1
186,quadbright,29.0,17,1,614.2840385437012,614.2830848693848,880,1
187,quadbright,30.0,18,0,1078.0386924743652,1078.0370235443115,899,1
188,quadbright,5.0,11,1,99.58982467651367,1507.185935974121,1464,1
189,quadbright,6.0,11,0,96.88806533813477,1175.7900714874268,1224,1
190,quadbright,7.0,11,1,297.05214500427246,1428.7033081054688,1265,1
191,quadbright,8.0,15,1,99.12276268005371,495.0127601623535,1230,1
192,quadbright,9.0,11,1,198.4410285949707,494.95387077331543,842,1
193,quadbright,10.0,11,1,495.1810836791992,495.1760768890381,831,1
194,quadbright,11.0,14,1,1579.1819095611572,1579.1800022125244,1219,1
195,quadbright,12.0,14,1,1218.0769443511963,1218.073844909668,1089,1
196,quadbright,13.0,11,1,494.9469566345215,494.94409561157227,1069,1
197,quadbright,14.0,11,1,493.5131072998047,493.50690841674805,1016,1
198,quadbright,15.0,11,1,484.7891330718994,484.7860336303711,927,1
199,quadbright,16.0,11,1,495.22900581359863,495.2278137207031,954,1
200,quadbright,17.0,11,1,591.9699668884277,591.9668674468994,949,1
201,quadbright,18.0,11,1,494.86517906188965,494.86422538757324,1433,1
202,quadbright,19.0,11,1,700.3331184387207,700.3309726715088,966,1
203,quadbright,20.0,11,1,689.8970603942871,689.8939609527588,1223,1
204,quadbright,21.0,17,1,395.341157913208,395.3371047973633,958,1
205,quadbright,22.0,11,1,780.6780338287354,780.6768417358398,1444,1
206,quadbright,23.0,11,1,1001.910924911499,1001.9078254699707,1049,1
207,quadbright,24.0,14,1,594.1710472106934,594.1638946533203,1388,1
208,quadbright,25.0,14,1,691.9879913330078,691.9779777526855,950,1
209,quadbright,26.0,17,1,693.5608386993408,693.5591697692871,1095,1
210,quadbright,27.0,18,0,780.8492183685303,780.8482646942139,818,1
211,quadbright,28.0,15,0,683.5052967071533,683.5041046142578,1070,1
212,quadbright,29.0,15,0,822.9689598083496,822.9589462280273,1010,1
213,quadbright,30.0,20,1,527.9791355133057,527.97532081604,862,1
214,quadbright,5.0,8,1,198.1797218322754,583.1758975982666,891,1
215,quadbright,6.0,14,1,207.9641819000244,603.1742095947266,1218,1
216,quadbright,7.0,8,1,198.9901065826416,598.8302230834961,1009,1
217,quadbright,8.0,15,1,198.89593124389648,604.5489311218262,1144,1
218,quadbright,9.0,8,1,603.5971641540527,603.5940647125244,1377,1
219,quadbright,10.0,8,1,596.121072769165,596.1201190948486,843,1
220,quadbright,11.0,14,1,593.5840606689453,593.580961227417,1162,1
221,quadbright,12.0,14,1,591.9668674468994,591.9637680053711,1289,1
222,quadbright,13.0,8,1,780.8330059051514,780.8318138122559,1189,1
223,quadbright,14.0,8,1,592.6530361175537,592.6461219787598,1103,1
224,quadbright,15.0,8,1,779.7329425811768,779.7307968139648,883,1
225,quadbright,16.0,8,1,1088.336706161499,1088.334083557129,1321,1
226,quadbright,17.0,8,1,780.210018157959,780.2081108093262,1481,1
227,quadbright,18.0,8,1,823.418140411377,823.408842086792,1180,1
228,quadbright,19.0,8,1,692.6212310791016,692.6190853118896,1161,1
229,quadbright,20.0,8,1,933.1629276275635,933.1598281860352,1200,1
230,quadbright,21.0,15,1,626.2400150299072,626.2390613555908,1157,1
231,quadbright,22.0,8,1,624.8199939727783,624.8137950897217,987,1
232,quadbright,23.0,8,0,985.7678413391113,985.7659339904785,899,1
233,quadbright,24.0,14,1,591.0673141479492,591.0630226135254,977,1
234,quadbright,25.0,14,1,583.214282989502,583.2130908966064,1423,1
235,quadbright,26.0,15,1,592.383861541748,592.3819541931152,970,1
236,quadbright,27.0,20,1,593.4929847717285,593.4920310974121,1284,1
237,quadbright,28.0,17,1,628.7360191345215,628.7322044372559,973,1
238,quadbright,29.0,17,1,525.8698463439941,525.8679389953613,1055,1
239,quadbright,30.0,20,1,516.8311595916748,516.8299674987793,1446,1
240,quadbright,5.0,8,1,197.69024848937988,582.0212364196777,1410,1
241,quadbright,6.0,14,1,131.1330795288086,537.5170707702637,895,1
242,quadbright,7.0,8,1,197.08490371704102,593.5807228088379,1475,1
243,quadbright,8.0,14,1,97.57113456726074,394.17529106140137,1499,1
244,quadbright,9.0,8,1,497.83992767333984,497.83897399902344,1182,1
245,quadbright,10.0,8,1,1020.4489231109619,1020.4439163208008,909,1
246,quadbright,11.0,12,1,630.6240558624268,630.6209564208984,1135,1
247,quadbright,12.0,12,1,491.94788932800293,491.9450283050537,1392,1
248,quadbright,13.0,8,1,626.2776851654053,626.2767314910889,1225,1
249,quadbright,14.0,8,1,891.1581039428711,891.1559581756592,1081,1
250,quadbright,15.0,8,1,1296.0619926452637,1296.0591316223145,1142,1
251,quadbright,16.0,8,1,1578.9918899536133,1578.989028930664,1037,1
252,quadbright,17.0,8,1,911.038875579834,911.0379219055176,1485,1
253,quadbright,18.0,8,1,695.3940391540527,695.3918933868408,1274,1
254,quadbright,19.0,8,0,989.9041652679443,989.8979663848877,1201,1
255,quadbright,20.0,8,0,1078.3822536468506,1078.381061553955,857,1
256,quadbright,21.0,15,1,493.9100742340088,493.90411376953125,876,1
257,quadbright,22.0,8,0,1024.6658325195312,1024.6636867523193,1295,1
258,quadbright,23.0,11,1,481.65202140808105,481.65035247802734,1427,1
259,quadbright,24.0,12,1,503.6492347717285,503.6461353302002,1493,1
260,quadbright,25.0,12,1,893.6769962310791,893.6729431152344,884,1
261,quadbright,26.0,15,1,392.52305030822754,392.5209045410156,1196,1
262,quadbright,27.0,20,1,493.9699172973633,493.9687252044678,962,1
263,quadbright,28.0,17,1,493.79706382751465,493.7930107116699,952,1
264,quadbright,29.0,17,0,826.6868591308594,826.6839981079102,849,1
265,quadbright,30.0,19,0,1021.6939449310303,1021.691083908081,906,1
266,quadbright,5.0,5,1,99.04885292053223,493.283748626709,887,1
267,quadbright,6.0,12,1,99.12109375,428.2948970794678,1265,1
268,quadbright,7.0,5,1,198.2409954071045,1197.9482173919678,1144,1
269,quadbright,8.0,14,1,98.44398498535156,494.3430423736572,1165,1
270,quadbright,9.0,5,1,99.6401309967041,813.286304473877,1140,1
271,quadbright,10.0,5,1,536.5698337554932,536.5681648254395,1131,1
272,quadbright,11.0,12,1,516.3159370422363,516.3147449493408,816,1
273,quadbright,12.0,12,0,780.4732322692871,780.4710865020752,1169,1
274,quadbright,13.0,5,0,925.0128269195557,924.994945526123,1226,1
275,quadbright,14.0,5,1,981.2920093536377,981.2910556793213,1376,1
276,quadbright,15.0,5,1,691.5011405944824,691.4970874786377,924,1
277,quadbright,16.0,5,0,696.0079669952393,696.0060596466064,1099,1
278,quadbright,17.0,5,0,693.2981014251709,693.2950019836426,862,1
279,quadbright,18.0,5,1,591.9620990753174,591.9580459594727,1092,1
280,quadbright,19.0,11,1,693.1099891662598,693.1099891662598,1142,1
281,quadbright,20.0,11,1,406.2957763671875,406.2919616699219,1312,1
282,quadbright,21.0,14,1,632.4911117553711,632.4870586395264,1051,1
283,quadbright,22.0,11,1,629.6629905700684,629.6589374542236,1095,1
284,quadbright,23.0,11,1,595.9360599517822,595.933198928833,1414,0
285,quadbright,23.0,11,1,794.2540645599365,794.2512035369873,902,1
286,quadbright,24.0,12,1,796.5481281280518,796.5459823608398,872,1
287,quadbright,25.0,12,0,696.253776550293,696.2499618530273,806,1
288,quadbright,26.0,14,1,525.9158611297607,525.911808013916,1157,1
289,quadbright,27.0,19,1,491.7421340942383,491.73808097839355,882,1
290,quadbright,28.0,16,0,821.3410377502441,821.3367462158203,1377,1
291,quadbright,29.0,18,1,780.2228927612305,780.2221775054932,1120,1
292,quadbright,30.0,20,1,790.0481224060059,790.045976638794,806,1
293,quadbright,5.0,5,1,99.48086738586426,1384.988784790039,900,1
294,quadbright,6.0,12,1,99.5018482208252,395.8449363708496,1067,1
295,quadbright,7.0,5,1,198.46510887145996,496.9949722290039,870,1
296,quadbright,8.0,12,1,196.78592681884766,592.0000076293945,1174,1
297,quadbright,9.0,5,1,98.57892990112305,1110.0449562072754,941,1
298,quadbright,10.0,5,1,1804.2466640472412,1804.245948791504,874,1
299,quadbright,11.0,11,1,483.4280014038086,483.4270477294922,1176,1
300,quadbright,12.0,14,1,594.4268703460693,594.4247245788574,1227,1
301,quadbright,13.0,8,1,781.2337875366211,781.2328338623047,989,1
302,quadbright,14.0,5,0,131.0100555419922,1705.9640884399414,872,1
303,quadbright,15.0,5,1,582.4730396270752,582.4720859527588,1152,1
304,quadbright,16.0,8,1,791.3689613342285,791.3649082183838,1414,1
305,quadbright,17.0,8,1,693.4280395507812,693.4249401092529,1046,1
306,quadbright,18.0,5,0,922.9550361633301,922.9519367218018,1075,1
307,quadbright,19.0,11,1,595.1910018920898,595.1879024505615,1263,1
308,quadbright,20.0,11,1,517.6036357879639,517.6019668579102,1183,1
309,quadbright,21.0,14,1,615.6208515167236,615.6201362609863,1435,0
310,quadbright,21.0,14,1,494.28391456604004,494.2820072174072,860,1
311,quadbright,22.0,11,1,494.7690963745117,494.7681427001953,885,1
312,quadbright,23.0,9,0,1285.5370044708252,1285.5288982391357,1431,1
313,quadbright,24.0,11,0,989.2148971557617,989.2110824584961,1055,1
314,quadbright,25.0,14,1,504.75502014160156,504.75096702575684,810,1
315,quadbright,26.0,14,1,515.0861740112305,515.0852203369141,1060,1
316,quadbright,27.0,19,1,395.54715156555176,395.54619789123535,1147,1
317,quadbright,28.0,17,1,406.3270092010498,406.3239097595215,1403,1
318,quadbright,29.0,18,1,494.1549301147461,494.14992332458496,842,1
319,quadbright,30.0,20,1,492.53177642822266,492.52891540527344,1294,1
320,quadbright,5.0,2,1,107.28716850280762,798.8512516021729,1225,1
321,quadbright,6.0,11,1,399.92713928222656,399.92403984069824,1186,1
322,quadbright,7.0,2,0,131.34431838989258,615.7083511352539,1480,1
323,quadbright,8.0,12,1,229.47096824645996,523.3919620513916,1280,1
324,quadbright,9.0,2,1,1528.0489921569824,1528.0468463897705,1106,1
325,quadbright,10.0,2,0,98.5097885131836,780.3380489349365,1456,1
326,quadbright,11.0,11,1,507.2741508483887,507.27295875549316,1499,1
327,quadbright,12.0,14,1,494.28391456604004,494.2777156829834,1240,1
328,quadbright,13.0,8,1,398.8380432128906,398.8349437713623,896,1
329,quadbright,14.0,8,1,593.9748287200928,593.9731597900391,1193,1
330,quadbright,15.0,2,1,796.8289852142334,796.8261241912842,1471,1
331,quadbright,16.0,8,1,691.2879943847656,691.2851333618164,986,1
332,quadbright,17.0,8,1,495.85795402526855,495.85676193237305,903,1
333,quadbright,18.0,8,1,525.1851081848145,525.1808166503906,932,1
334,quadbright,19.0,9,1,692.5837993621826,692.5830841064453,1259,1
335,quadbright,20.0,9,1,681.3819408416748,681.3807487487793,958,1
336,quadbright,21.0,12,1,500.6709098815918,500.6678104400635,963,1
337,quadbright,22.0,9,1,505.24401664733887,505.24187088012695,1170,1
338,quadbright,23.0,11,1,494.9190616607666,494.91286277770996,1331,1
339,quadbright,24.0,12,1,681.8928718566895,681.891918182373,1208,1
340,quadbright,25.0,14,1,493.1192398071289,493.11208724975586,1219,1
341,quadbright,26.0,12,1,706.6631317138672,706.6600322723389,853,1
342,quadbright,27.0,18,1,536.8649959564209,536.862850189209,924,1
343,quadbright,28.0,17,1,494.91095542907715,494.9069023132324,1250,1
344,quadbright,29.0,17,1,601.1350154876709,601.1340618133545,1248,1
345,quadbright,30.0,19,1,1108.4678173065186,1108.4668636322021,888,1
346,quadbright,5.0,2,1,991.3101196289062,991.3079738616943,1136,1
347,quadbright,6.0,11,1,99.55406188964844,495.58496475219727,1485,1
348,quadbright,7.0,5,1,98.8166332244873,525.0687599182129,1028,1
349,quadbright,8.0,11,1,98.82283210754395,484.2207431793213,910,1
350,quadbright,9.0,2,1,707.3218822479248,707.3178291320801,1038,1
351,quadbright,10.0,5,0,991.8310642242432,991.828441619873,1425,1
352,quadbright,11.0,9,1,396.3909149169922,396.3899612426758,1359,1
353,quadbright,12.0,13,1,497.71738052368164,497.7133274078369,866,1
354,quadbright,13.0,6,1,792.0980453491211,792.0939922332764,1492,1
355,quadbright,14.0,8,0,694.0441131591797,694.0422058105469,1094,1
356,quadbright,15.0,2,0,696.0408687591553,696.0399150848389,1258,1
357,quadbright,16.0,6,1,692.375659942627,692.3677921295166,886,1
358,quadbright,17.0,6,0,791.9878959655762,791.9869422912598,1268,1
359,quadbright,18.0,8,1,1594.853162765503,1594.8500633239746,1493,1
360,quadbright,19.0,9,1,593.8827991485596,593.8811302185059,1412,1
361,quadbright,20.0,9,1,689.5959377288818,689.5928382873535,1476,1
362,quadbright,21.0,12,1,494.5940971374512,494.58885192871094,1008,1
363,quadbright,22.0,9,1,681.5822124481201,681.5810203552246,1110,1
364,quadbright,23.0,11,1,681.9570064544678,681.9560527801514,1385,1
365,quadbright,24.0,12,1,496.28591537475586,496.28376960754395,985,1
366,quadbright,25.0,13,1,723.4840393066406,723.4780788421631,1324,1
367,quadbright,26.0,12,1,694.6840286254883,694.68092918396,1343,1
368,quadbright,27.0,18,1,594.296932220459,594.2928791046143,970,1
369,quadbright,28.0,16,1,793.4229373931885,793.4200763702393,1361,1
370,quadbright,29.0,17,0,893.4488296508789,893.4478759765625,1068,1
371,quadbright,30.0,19,1,595.4239368438721,595.4229831695557,1452,1
372,quadbright,5.0,1,1,97.3360538482666,1121.5429306030273,877,1
373,quadbright,6.0,9,1,99.6086597442627,582.9997062683105,1323,1
374,quadbright,7.0,5,0,98.72698783874512,1109.203815460205,905,1
375,quadbright,8.0,11,1,99.13802146911621,607.5119972229004,1356,1
376,quadbright,9.0,1,0,100.36587715148926,992.5799369812012,1010,1
377,quadbright,10.0,8,0,693.2599544525146,693.2590007781982,938,1
378,quadbright,11.0,9,1,495.74804306030273,495.7449436187744,1278,1
379,quadbright,12.0,13,1,522.0489501953125,522.0458507537842,870,1
380,quadbright,13.0,6,0,834.2921733856201,834.2862129211426,1023,1
381,quadbright,14.0,9,1,592.7510261535645,592.742919921875,1068,1
382,quadbright,15.0,5,0,1021.6479301452637,1021.6460227966309,833,1
383,quadbright,16.0,6,0,724.2660522460938,724.2600917816162,842,1
384,quadbright,17.0,8,1,537.4367237091064,537.4338626861572,1093,1
385,quadbright,18.0,6,1,625.2098083496094,625.2050399780273,1320,1
386,quadbright,19.0,8,1,592.8959846496582,592.890739440918,1102,1
387,quadbright,20.0,8,0,1287.1770858764648,1287.1739864349365,1331,1
388,quadbright,21.0,11,1,891.9119834899902,891.9098377227783,1154,1
389,quadbright,22.0,8,1,1686.5839958190918,1686.579942703247,1233,1
390,quadbright,23.0,10,1,693.2451725006104,693.244218826294,860,1
391,quadbright,24.0,11,1,691.7250156402588,691.7209625244141,1394,1
392,quadbright,25.0,13,1,628.6799907684326,628.6783218383789,1061,1
393,quadbright,26.0,11,0,624.8948574066162,624.8908042907715,1401,1
394,quadbright,27.0,17,0,923.1412410736084,923.1400489807129,1350,1
395,quadbright,28.0,16,1,593.6439037322998,593.6391353607178,1089,1
396,quadbright,29.0,18,1,594.0968990325928,594.0940380096436,818,1
397,quadbright,30.0,18,1,592.9408073425293,592.9379463195801,1080,1
