trial,condition,eccentricity,magnitude,correct,srt_ms,keyboard_rt_ms,pre_change_ms,valid
1,control,5.0,20,1,98.5250473022461,690.3750896453857,1038,1
2,control,6.0,20,1,98.78110885620117,394.70386505126953,867,1
3,control,7.0,20,1,989.4058704376221,989.4008636474609,1445,1
4,control,8.0,20,1,98.28805923461914,492.95997619628906,1103,1
5,control,9.0,20,1,98.72102737426758,494.39001083374023,1142,1
6,control,10.0,20,1,489.4111156463623,489.4089698791504,912,1
7,control,11.0,20,1,694.6849822998047,694.6828365325928,1405,1
8,control,12.0,20,1,527.1658897399902,527.1627902984619,813,1
9,control,13.0,20,1,428.87282371520996,428.87187004089355,1477,1
10,control,14.0,20,1,493.988037109375,493.9849376678467,900,1
11,control,15.0,20,1,1387.4199390411377,1387.4130249023438,1497,1
12,control,16.0,20,1,494.15087699890137,494.1439628601074,1424,1
13,control,17.0,20,1,530.0307273864746,530.0288200378418,1228,1
14,control,18.0,20,1,495.76783180236816,495.7578182220459,906,1
15,control,19.0,20,1,494.9960708618164,494.9951171875,1221,1
16,control,20.0,20,1,494.2209720611572,494.2159652709961,1290,1
17,control,21.0,20,1,592.4382209777832,592.4351215362549,907,1
18,control,22.0,20,1,493.67499351501465,493.67308616638184,821,1
19,control,23.0,20,1,593.0607318878174,593.0569171905518,1071,1
20,control,24.0,20,1,526.0570049285889,526.0519981384277,1099,1
21,control,25.0,20,1,526.1929035186768,526.1919498443604,1271,1
22,control,26.0,20,1,692.3189163208008,692.3172473907471,1240,1
23,control,27.0,20,1,493.3581352233887,493.35598945617676,1200,1
24,control,28.0,20,1,1037.2800827026367,1037.2772216796875,1056,1
25,control,29.0,20,1,424.55482482910156,424.5448112487793,861,1
26,control,30.0,20,0,615.5271530151367,615.5271530151367,1190,1
27,control,5.0,20,1,133.37397575378418,538.6571884155273,1473,1
28,control,6.0,20,1,97.92089462280273,395.4038619995117,960,1
29,control,7.0,20,1,97.7029800415039,491.5199279785156,838,1
30,control,8.0,20,1,99.54595565795898,990.6001091003418,1371,1
31,control,9.0,20,1,199.48983192443848,594.0108299255371,1344,1
32,control,10.0,20,1,593.4200286865234,593.4131145477295,1350,1
33,control,11.0,20,1,491.17517471313477,491.17207527160645,1251,1
34,control,12.0,20,1,395.7710266113281,395.7672119140625,1337,1
35,control,13.0,20,1,691.4129257202148,691.4081573486328,1320,1
36,control,14.0,20,1,493.9746856689453,493.9718246459961,1048,1
37,control,15.0,20,1,593.7900543212891,593.7879085540771,882,1
38,control,16.0,20,1,493.6408996582031,493.6368465423584,1315,1
39,control,17.0,20,1,494.28606033325195,494.28391456604004,1324,1
40,control,18.0,20,1,492.45214462280273,492.4511909484863,1368,1
41,control,19.0,20,1,493.13902854919434,493.1349754333496,1401,1
42,control,20.0,20,1,494.2822456359863,494.2750930786133,1048,1
43,control,21.0,20,1,492.5410747528076,492.53296852111816,1133,1
44,control,22.0,20,1,691.2610530853271,691.2579536437988,1275,1
45,control,23.0,20,1,692.7978992462158,692.7950382232666,1030,1
46,control,24.0,20,1,502.95519828796387,502.95019149780273,887,1
47,control,25.0,20,1,493.1759834289551,493.17097663879395,1231,1
48,control,26.0,20,1,494.95983123779297,494.95863914489746,1345,1
49,control,27.0,20,1,493.1671619415283,493.1631088256836,1401,1
50,control,28.0,20,1,692.3770904541016,692.3661231994629,832,1
51,control,29.0,20,1,495.35083770751953,495.3439235687256,1052,1
52,control,30.0,23,1,495.71728706359863,495.7120418548584,1325,1
53,control,5.0,17,1,98.8621711730957,505.2149295806885,1310,1
54,control,6.0,17,1,99.10202026367188,508.4948539733887,907,1
55,control,7.0,17,1,198.14491271972656,593.7879085540771,1133,1
56,control,8.0,17,1,592.3478603363037,592.3388004302979,988,1
57,control,9.0,17,1,483.37793350219727,483.37697982788086,1342,1
58,control,10.0,17,1,99.09796714782715,494.2820072174072,956,1
59,control,11.0,17,1,395.6871032714844,395.68614959716797,1052,1
60,control,12.0,17,1,593.6191082000732,593.5990810394287,827,1
61,control,13.0,17,1,692.3549175262451,692.3511028289795,1452,1
62,control,14.0,17,1,988.6999130249023,988.6939525604248,1181,1
63,control,15.0,17,1,493.2749271392822,493.26491355895996,988,1
64,control,16.0,17,1,494.41003799438477,494.4040775299072,1333,1
65,control,17.0,17,1,595.23606300354,595.2270030975342,1465,1
66,control,18.0,17,0,1285.9220504760742,1285.912036895752,1371,1
67,control,19.0,17,1,494.43793296813965,494.43697929382324,1241,1
68,control,20.0,17,1,493.8321113586426,493.82829666137695,1361,1
69,control,21.0,17,1,595.52001953125,595.5183506011963,1050,1
70,control,22.0,17,1,594.9740409851074,594.9699878692627,1074,1
71,control,23.0,17,1,397.8579044342041,397.8550434112549,832,1
72,control,24.0,17,1,483.1089973449707,483.1080436706543,828,1
73,control,25.0,17,1,593.0390357971191,593.0361747741699,953,1
74,control,26.0,17,1,594.735860824585,594.7329998016357,1400,1
75,control,27.0,17,1,392.58718490600586,392.58599281311035,1103,1
76,control,28.0,17,1,492.8247928619385,492.81883239746094,1320,1
77,control,29.0,17,0,788.463830947876,788.4538173675537,829,1
78,control,30.0,23,1,691.3728713989258,691.3580894470215,1178,1
79,control,5.0,17,1,131.577730178833,625.2968311309814,832,1
80,control,6.0,17,1,98.97899627685547,988.6488914489746,1331,1
81,control,7.0,17,1,198.26197624206543,623.7978935241699,1329,1
82,control,8.0,17,1,99.32208061218262,395.57814598083496,1165,1
83,control,9.0,17,1,633.8100433349609,633.8088512420654,1265,1
84,control,10.0,17,1,495.1601028442383,495.15700340270996,1016,1
85,control,11.0,17,1,502.8829574584961,502.87795066833496,1166,1
86,control,12.0,17,1,196.75898551940918,625.0591278076172,1123,1
87,control,13.0,17,1,625.6451606750488,625.6430149078369,1305,1
88,control,14.0,17,1,392.52305030822754,392.51089096069336,870,1
89,control,15.0,17,1,494.40908432006836,494.39501762390137,955,1
90,control,16.0,17,1,1120.265007019043,1120.2518939971924,1204,1
91,control,17.0,17,1,720.5252647399902,720.5231189727783,1301,1
92,control,18.0,20,1,327.4219036102295,327.41785049438477,1157,1
93,control,19.0,17,1,724.1621017456055,724.1573333740234,1209,1
94,control,20.0,17,1,626.4429092407227,626.4402866363525,847,1
95,control,21.0,17,1,626.338005065918,626.3370513916016,1403,1
96,control,22.0,17,1,625.4620552062988,625.4599094390869,1075,1
97,control,23.0,17,1,594.8150157928467,594.8100090026855,953,1
98,control,24.0,17,1,494.87781524658203,494.8689937591553,992,1
99,control,25.0,17,1,692.0468807220459,692.0351982116699,958,1
100,control,26.0,17,1,493.253231048584,493.25108528137207,1283,1
101,control,27.0,17,1,493.7269687652588,493.7260150909424,1322,1
102,control,28.0,17,1,493.5178756713867,493.5119152069092,1206,1
103,control,29.0,20,1,593.7669277191162,593.7631130218506,842,1
104,control,30.0,20,1,395.557165145874,395.5521583557129,1121,1
105,control,5.0,14,1,198.18806648254395,593.5409069061279,1116,1
106,control,6.0,14,1,199.4152069091797,493.6871528625488,1298,1
107,control,7.0,14,1,596.2018966674805,596.1978435516357,1386,1
108,control,8.0,14,1,495.54896354675293,495.5470561981201,859,1
109,control,9.0,14,1,589.8480415344238,589.8430347442627,994,1
110,control,10.0,14,1,98.64687919616699,1114.6228313446045,1309,1
111,control,11.0,14,1,395.4789638519287,395.4758644104004,1162,1
112,control,12.0,14,1,525.3198146820068,525.317907333374,1210,1
113,control,13.0,14,1,688.4121894836426,688.4102821350098,846,1
114,control,14.0,14,1,396.54088020324707,396.53706550598145,1403,1
115,control,15.0,14,1,692.0390129089355,692.033052444458,1463,1
116,control,16.0,14,1,495.6827163696289,495.6810474395752,1210,1
117,control,17.0,14,1,691.4780139923096,691.4618015289307,1090,1
118,control,18.0,20,0,297.1971035003662,297.19018936157227,889,1
119,control,19.0,14,1,524.8169898986816,524.785041809082,1393,1
120,control,20.0,14,1,593.3918952941895,593.3902263641357,1251,1
121,control,21.0,14,1,593.0430889129639,593.0361747741699,1015,1
122,control,22.0,14,1,494.952917098999,494.9500560760498,815,1
123,control,23.0,14,1,989.4120693206787,989.4099235534668,1450,1
124,control,24.0,14,1,592.8628444671631,592.857837677002,993,1
125,control,25.0,14,1,485.0959777832031,485.0947856903076,1300,1
126,control,26.0,14,1,491.3458824157715,491.33896827697754,1211,0
127,control,26.0,14,1,526.015043258667,526.0100364685059,1470,1
128,control,27.0,14,1,517.5061225891113,517.5051689147949,848,1
129,control,28.0,14,1,396.03209495544434,396.0309028625488,1403,0
130,control,28.0,14,1,494.83585357666016,494.83489990234375,1237,0
131,control,28.0,14,0,393.80812644958496,393.8021659851074,1136,1
132,control,29.0,20,1,529.3149948120117,529.3121337890625,1333,1
133,control,30.0,20,1,627.7391910552979,627.7360916137695,905,1
134,control,5.0,14,1,230.8511734008789,625.7569789886475,1157,1
135,control,6.0,14,1,97.625732421875,494.4767951965332,927,1
136,control,7.0,14,1,526.9608497619629,526.9498825073242,837,1
137,control,8.0,14,1,97.68390655517578,491.26672744750977,1052,1
138,control,9.0,14,1,881.7670345306396,881.7660808563232,910,1
139,control,10.0,14,1,99.18522834777832,496.7789649963379,863,1
140,control,11.0,14,1,593.8410758972168,593.8401222229004,1026,1
141,control,12.0,14,1,492.9158687591553,492.9089546203613,1191,1
142,control,13.0,14,1,493.7317371368408,493.7260150909424,1215,1
143,control,14.0,14,1,493.5321807861328,493.5290813446045,1456,1
144,control,15.0,14,1,493.7248229980469,493.71886253356934,1369,1
145,control,16.0,14,1,989.3221855163574,989.3159866333008,1057,1
146,control,17.0,14,1,592.332124710083,592.3299789428711,1405,1
147,control,18.0,21,1,493.3187961578369,493.3178424835205,997,1
148,control,19.0,14,1,592.9679870605469,592.9620265960693,1238,1
149,control,20.0,14,1,593.8360691070557,593.8339233398438,1332,1
150,control,21.0,14,1,494.25721168518066,494.2493438720703,1135,1
151,control,22.0,14,1,493.3209419250488,493.3180809020996,1383,1
152,control,23.0,14,1,502.05087661743164,502.0437240600586,1368,1
153,control,24.0,14,1,495.11027336120605,495.10908126831055,1342,1
154,control,25.0,14,1,594.6710109710693,594.6650505065918,1210,1
155,control,26.0,14,1,497.42889404296875,497.42698669433594,865,1
156,control,27.0,14,1,495.06521224975586,495.06211280822754,1438,1
157,control,28.0,17,1,493.5030937194824,493.5009479522705,1187,1
158,control,29.0,18,1,505.10287284851074,505.0981044769287,1451,1
159,control,30.0,17,1,593.289852142334,593.2857990264893,1196,1
160,control,5.0,11,1,98.68693351745605,494.3392276763916,992,1
161,control,6.0,11,1,131.2699317932129,436.1071586608887,1152,1
162,control,7.0,11,1,99.64179992675781,393.72801780700684,1470,1
163,control,8.0,11,1,592.677116394043,592.6680564880371,1337,1
164,control,9.0,11,1,131.6089630126953,626.3260841369629,934,1
165,control,10.0,11,1,595.0689315795898,595.0648784637451,1076,1
166,control,11.0,11,1,98.44613075256348,493.47710609436035,1316,1
167,control,12.0,11,1,493.3450222015381,493.3352470397949,1164,1
168,control,13.0,11,1,593.829870223999,593.825101852417,1405,1
169,control,14.0,11,1,704.2560577392578,704.2531967163086,1390,1
170,control,15.0,11,1,496.3657855987549,496.36197090148926,1383,1
171,control,16.0,11,1,693.1710243225098,693.1700706481934,1019,1
172,control,17.0,11,1,494.83489990234375,494.83394622802734,1015,1
173,control,18.0,21,1,592.5920009613037,592.5900936126709,800,1
174,control,19.0,11,1,493.6211109161377,493.6189651489258,1263,1
175,control,20.0,11,1,492.89584159851074,492.8908348083496,941,1
176,control,21.0,11,1,394.85716819763184,394.8521614074707,1259,1
177,control,22.0,11,1,492.31529235839844,492.3100471496582,1461,1
178,control,23.0,11,1,593.7440395355225,593.7409400939941,1024,1
179,control,24.0,11,1,494.7350025177002,494.7338104248047,810,1
180,control,25.0,11,1,530.4150581359863,530.411958694458,1397,1
181,control,26.0,11,1,625.8537769317627,625.8528232574463,1271,1
182,control,27.0,11,1,585.521936416626,585.5209827423096,886,1
183,control,28.0,17,1,495.373010635376,495.37110328674316,1337,1
184,control,29.0,18,1,493.8380718231201,493.82877349853516,1445,1
185,control,30.0,17,1,493.84093284606934,493.83091926574707,1058,1
186,control,5.0,11,1,98.5877513885498,395.28894424438477,1117,1
187,control,6.0,11,1,99.18999671936035,493.9231872558594,1230,1
188,control,7.0,11,1,495.49388885498047,495.49007415771484,1417,1
189,control,8.0,11,1,493.2436943054199,493.23582649230957,1092,1
190,control,9.0,11,1,99.12490844726562,395.7180976867676,938,1
191,control,10.0,11,1,97.79500961303711,392.95005798339844,1411,1
192,control,11.0,11,1,717.1890735626221,717.1878814697266,862,1
193,control,12.0,11,1,592.789888381958,592.7877426147461,1413,1
194,control,13.0,11,1,493.6652183532715,493.65687370300293,1051,1
195,control,14.0,11,1,493.7469959259033,493.7400817871094,1185,1
196,control,15.0,11,1,593.8637256622314,593.862771987915,1393,1
197,control,16.0,11,1,494.3280220031738,494.3239688873291,1381,1
198,control,17.0,11,1,493.38603019714355,493.3779239654541,1446,1
199,control,18.0,20,1,493.95084381103516,493.94989013671875,949,1
200,control,19.0,11,1,692.9728984832764,692.9709911346436,1100,1
201,control,20.0,11,1,494.06957626342773,494.067907333374,1336,1
202,control,21.0,11,1,593.735933303833,593.7349796295166,1265,1
203,control,22.0,11,1,493.2572841644287,493.25013160705566,1340,1
204,control,23.0,11,1,494.43578720092773,494.4338798522949,889,1
205,control,24.0,11,1,493.67380142211914,493.6690330505371,1155,1
206,control,25.0,11,1,499.0248680114746,499.0227222442627,1063,1
207,control,26.0,11,1,593.0271148681641,593.0261611938477,1286,1
208,control,27.0,11,0,594.6807861328125,594.6798324584961,1162,1
209,control,28.0,15,1,583.6489200592041,583.6479663848877,1065,1
210,control,29.0,17,1,493.29376220703125,493.2839870452881,1240,1
211,control,30.0,14,1,1417.2210693359375,1417.2179698944092,1239,1
212,control,5.0,8,1,98.45185279846191,1287.3730659484863,1236,1
213,control,6.0,8,1,132.13396072387695,658.5969924926758,1364,1
214,control,7.0,8,1,495.53394317626953,495.5308437347412,858,1
215,control,8.0,8,1,198.79388809204102,723.4029769897461,1496,1
216,control,9.0,8,1,494.9681758880615,494.9672222137451,1159,1
217,control,10.0,8,1,593.7759876251221,593.7700271606445,975,1
218,control,11.0,8,1,393.8250541687012,393.82004737854004,1164,1
219,control,12.0,8,1,493.6380386352539,493.6339855194092,1413,1
220,control,13.0,8,1,604.0759086608887,604.071855545044,938,1
221,control,14.0,8,1,493.5481548309326,493.5460090637207,826,1
222,control,15.0,8,1,626.335859298706,626.335859298706,1243,1
223,control,16.0,8,1,923.234224319458,923.2330322265625,1379,1
224,control,17.0,8,1,418.7138080596924,418.712854385376,1293,1
225,control,18.0,20,1,594.2521095275879,594.2509174346924,860,1
226,control,19.0,8,1,484.9560260772705,484.9550724029541,905,1
227,control,20.0,8,1,888.8928890228271,888.8907432556152,1026,1
228,control,21.0,8,1,494.99988555908203,494.99988555908203,1474,1
229,control,22.0,8,1,979.2842864990234,979.2821407318115,815,1
230,control,23.0,8,1,595.5688953399658,595.5657958984375,1158,0
231,control,23.0,8,1,682.2171211242676,682.2149753570557,883,1
232,control,24.0,8,1,691.7831897735596,691.7800903320312,988,1
233,control,25.0,8,1,593.7669277191162,593.7659740447998,1426,1
234,control,26.0,8,0,496.3099956512451,496.3059425354004,1318,1
235,control,27.0,14,1,791.9080257415771,791.9070720672607,1230,1
236,control,28.0,15,1,494.31920051574707,494.31824684143066,1033,1
237,control,29.0,17,1,692.4049854278564,692.3999786376953,1252,1
238,control,30.0,14,0,690.9010410308838,690.8910274505615,1255,1
239,control,5.0,8,1,98.9842414855957,483.0300807952881,1486,1
240,control,6.0,8,1,100.39997100830078,496.49596214294434,1461,1
241,control,7.0,8,1,197.9057788848877,703.8578987121582,1120,1
242,control,8.0,8,1,99.50900077819824,503.16786766052246,996,1
243,control,9.0,8,1,585.9792232513428,585.9780311584473,1223,1
244,control,10.0,8,1,395.855188369751,395.84827423095703,1175,1
245,control,11.0,8,1,493.96204948425293,493.9570426940918,1485,1
246,control,12.0,8,1,495.04780769348145,495.04685401916504,1440,1
247,control,13.0,8,1,593.7900543212891,593.7891006469727,1407,1
248,control,14.0,8,1,485.532283782959,485.53013801574707,1175,1
249,control,15.0,8,0,989.037036895752,989.03489112854,1176,1
250,control,16.0,8,1,978.4729480743408,978.4729480743408,921,1
251,control,17.0,8,1,483.13403129577637,483.13307762145996,1255,1
252,control,18.0,19,1,603.6560535430908,603.6529541015625,1445,1
253,control,19.0,8,1,691.8730735778809,691.8692588806152,1367,1
254,control,20.0,8,0,890.0048732757568,890.0039196014404,1409,1
255,control,21.0,8,1,592.6058292388916,592.5917625427246,1225,1
256,control,22.0,8,1,582.6969146728516,582.6959609985352,906,1
257,control,23.0,8,1,889.5401954650879,889.5361423492432,1209,1
258,control,24.0,8,1,483.5090637207031,483.5078716278076,1040,1
259,control,25.0,8,1,604.2990684509277,604.2969226837158,1013,1
260,control,26.0,11,1,693.2001113891602,693.1991577148438,1357,1
261,control,27.0,14,1,594.0778255462646,594.0768718719482,1455,1
262,control,28.0,14,1,492.06089973449707,492.05684661865234,1062,1
263,control,29.0,15,1,633.8069438934326,633.8038444519043,996,1
264,control,30.0,17,1,590.3401374816895,590.3379917144775,1071,1
265,control,5.0,5,1,99.57003593444824,923.6640930175781,1257,1
266,control,6.0,5,1,99.0610122680664,515.7930850982666,1208,1
267,control,7.0,5,1,397.1290588378906,1120.5570697784424,966,1
268,control,8.0,5,1,98.66905212402344,812.0641708374023,1222,1
269,control,9.0,5,1,593.1601524353027,593.1570529937744,1194,1
270,control,10.0,5,1,594.2971706390381,594.2893028259277,1380,1
271,control,11.0,5,1,296.5357303619385,296.53477668762207,1147,1
272,control,12.0,5,1,527.7256965637207,527.7247428894043,1350,1
273,control,13.0,5,0,723.9768505096436,723.9718437194824,1212,1
274,control,14.0,5,0,725.7778644561768,725.7757186889648,1236,0
275,control,14.0,5,0,691.469669342041,691.4670467376709,1487,1
276,control,15.0,11,1,524.5628356933594,524.561882019043,1029,1
277,control,16.0,5,0,428.46107482910156,428.45606803894043,1423,1
278,control,17.0,5,1,524.1320133209229,524.13010597229,1163,1
279,control,18.0,19,1,626.406192779541,626.4050006866455,1173,1
280,control,19.0,5,1,900.0051021575928,900.001049041748,1053,1
281,control,20.0,11,1,812.5712871551514,812.570333480835,1053,1
282,control,21.0,5,1,986.839771270752,986.8369102478027,1428,1
283,control,22.0,5,0,482.9280376434326,482.9270839691162,1431,1
284,control,23.0,5,1,684.2339038848877,684.2331886291504,831,1
285,control,24.0,5,0,791.938066482544,791.9371128082275,1044,1
286,control,25.0,5,1,525.5351066589355,525.5320072174072,805,1
287,control,26.0,11,1,625.809907913208,625.8080005645752,844,1
288,control,27.0,12,1,620.455265045166,620.4500198364258,1093,1
289,control,28.0,14,1,492.8560256958008,492.84982681274414,1073,1
290,control,29.0,15,1,527.5876522064209,527.5845527648926,1277,1
291,control,30.0,17,1,526.9157886505127,526.9138813018799,1282,1
292,control,5.0,5,1,198.1649398803711,697.106122970581,1141,1
293,control,6.0,5,1,594.9828624725342,594.980001449585,1001,1
294,control,7.0,5,1,99.11966323852539,503.3597946166992,1004,1
295,control,8.0,5,1,197.82567024230957,625.9169578552246,1318,1
296,control,9.0,5,1,97.64480590820312,494.2800998687744,1054,1
297,control,10.0,5,1,693.1068897247314,693.105936050415,1036,1
298,control,11.0,5,1,594.6788787841797,594.6769714355469,1105,1
299,control,12.0,5,1,592.6928520202637,592.6909446716309,1125,1
300,control,13.0,8,1,592.879056930542,592.8781032562256,966,1
301,control,14.0,8,1,492.62404441833496,492.62309074401855,879,1
302,control,15.0,11,1,494.8880672454834,494.88329887390137,1315,1
303,control,16.0,8,1,494.0919876098633,494.0910339355469,858,1
304,control,17.0,5,0,792.0613288879395,792.060136795044,1437,1
305,control,18.0,18,1,593.8050746917725,593.803882598877,1235,1
306,control,19.0,5,0,538.118839263916,538.1171703338623,1420,1
307,control,20.0,11,1,592.2911167144775,592.2889709472656,1079,1
308,control,21.0,5,1,689.9821758270264,689.9750232696533,1053,1
309,control,22.0,8,1,494.78793144226074,494.7850704193115,803,1
310,control,23.0,5,0,589.7090435028076,589.7018909454346,902,1
311,control,24.0,8,1,495.2361583709717,495.23401260375977,1171,1
312,control,25.0,5,1,692.5771236419678,692.573070526123,1135,1
313,control,26.0,9,1,685.3451728820801,685.3439807891846,1086,1
314,control,27.0,12,1,525.12526512146,525.1212120056152,879,1
315,control,28.0,12,1,592.3571586608887,592.3528671264648,945,1
316,control,29.0,14,1,525.9671211242676,525.9661674499512,1498,1
317,control,30.0,15,1,593.2497978210449,593.2469367980957,1332,1
318,control,5.0,2,0,99.58910942077637,1121.190071105957,844,1
319,control,6.0,2,0,198.88687133789062,593.4970378875732,1269,1
320,control,7.0,2,1,604.3789386749268,604.374885559082,1451,1
321,control,8.0,2,1,197.9677677154541,393.2070732116699,1011,1
322,control,9.0,2,1,200.2701759338379,594.1140651702881,1323,1
323,control,10.0,2,0,591.7878150939941,591.7789936065674,944,1
324,control,11.0,2,0,900.7430076599121,900.7329940795898,946,1
325,control,12.0,2,1,594.1557884216309,594.1550731658936,1264,1
326,control,13.0,8,1,594.2988395690918,594.296932220459,1001,1
327,control,14.0,8,1,590.3849601745605,590.3820991516113,958,1
328,control,15.0,9,1,890.578031539917,890.5718326568604,1096,1
329,control,16.0,8,1,625.885009765625,625.8759498596191,1096,1
330,control,17.0,8,1,491.46008491516113,491.4588928222656,1330,1
331,control,18.0,18,1,525.0451564788818,525.0391960144043,1012,1
332,control,19.0,8,1,2001.9378662109375,2001.936912536621,908,1
333,control,20.0,9,1,625.9021759033203,625.8978843688965,843,1
334,control,21.0,2,1,890.6302452087402,890.6290531158447,984,1
335,control,22.0,8,1,492.3887252807617,492.3856258392334,880,1
336,control,23.0,8,1,590.7158851623535,590.7139778137207,1489,1
337,control,24.0,8,1,494.68111991882324,494.68016624450684,1444,1
338,control,25.0,2,1,780.1473140716553,780.1461219787598,1171,1
339,control,26.0,9,1,693.7079429626465,693.7060356140137,1227,1
340,control,27.0,11,1,595.8530902862549,595.8452224731445,1252,1
341,control,28.0,12,1,592.2472476959229,592.2379493713379,1179,1
342,control,29.0,14,1,395.8122730255127,395.80702781677246,1450,1
343,control,30.0,15,0,503.6747455596924,503.67164611816406,893,1
344,control,5.0,5,1,99.50780868530273,397.66788482666016,827,1
345,control,6.0,5,1,98.44279289245605,485.00585556030273,1432,1
346,control,7.0,2,0,98.65593910217285,990.0610446929932,1347,0
347,control,7.0,2,0,99.22289848327637,893.45383644104,1223,1
348,control,8.0,2,0,198.52304458618164,592.0100212097168,996,1
349,control,9.0,2,1,589.8990631103516,589.8959636688232,1428,1
350,control,10.0,5,1,495.776891708374,495.769739151001,954,1
351,control,11.0,5,1,483.04009437561035,483.03914070129395,1078,1
352,control,12.0,2,0,495.2402114868164,495.2392578125,1457,1
353,control,13.0,6,1,1804.0969371795654,1804.095983505249,1212,1
354,control,14.0,6,1,625.1471042633057,625.1461505889893,1264,1
355,control,15.0,9,1,493.333101272583,493.32499504089355,1042,1
356,control,16.0,6,1,591.6931629180908,591.6900634765625,933,1
357,control,17.0,8,0,1090.029001235962,1090.02685546875,898,1
358,control,18.0,17,1,394.58370208740234,394.58179473876953,1329,1
359,control,19.0,8,1,692.2497749328613,692.2481060028076,1107,1
360,control,20.0,9,1,592.3161506652832,592.3149585723877,1043,1
361,control,21.0,2,1,593.2919979095459,593.2881832122803,862,1
362,control,22.0,6,0,1523.4148502349854,1523.4129428863525,1173,1
363,control,23.0,8,1,493.30973625183105,493.30782890319824,1008,1
364,control,24.0,6,1,792.2780513763428,792.2770977020264,801,1
365,control,25.0,2,1,712.7768993377686,712.7759456634521,1315,1
366,control,26.0,8,0,723.7389087677002,723.7379550933838,1058,1
367,control,27.0,11,1,626.4090538024902,626.406192779541,976,1
368,control,28.0,11,1,693.9880847930908,693.986177444458,875,1
369,control,29.0,12,0,690.4091835021973,690.4041767120361,1289,1
370,control,30.0,17,1,594.0260887145996,594.0201282501221,1009,1
371,control,5.0,5,1,99.12896156311035,495.07808685302734,888,1
372,control,6.0,5,1,98.14214706420898,494.60816383361816,1221,1
373,control,7.0,5,1,98.51741790771484,592.6723480224609,950,1
374,control,8.0,5,1,693.2768821716309,693.2759284973145,883,1
375,control,9.0,1,1,790.9998893737793,790.9979820251465,985,1
376,control,10.0,5,1,487.66589164733887,487.66493797302246,1481,1
377,control,11.0,5,1,493.6039447784424,493.59893798828125,1428,1
378,control,12.0,5,1,593.9791202545166,593.9781665802002,1316,1
379,control,13.0,6,0,1028.987169265747,1028.9840698242188,969,1
380,control,14.0,6,0,923.4318733215332,923.4297275543213,943,1
381,control,15.0,8,0,627.0279884338379,627.0201206207275,808,1
382,control,16.0,6,1,1223.0808734893799,1223.078966140747,819,1
383,control,17.0,9,1,490.1580810546875,490.1571273803711,1257,1
384,control,18.0,17,0,592.548131942749,592.5440788269043,1477,1
385,control,19.0,6,1,593.656063079834,593.6551094055176,988,1
386,control,20.0,8,0,2671.6039180755615,2671.602964401245,1013,1
387,control,21.0,1,0,2101.193904876709,2101.1929512023926,1127,1
388,control,22.0,8,0,2368.439197540283,2368.4370517730713,1246,1
389,control,23.0,6,1,1116.5659427642822,1116.5640354156494,1424,1
390,control,24.0,6,0,3403.0420780181885,3403.0399322509766,1143,1
391,control,25.0,1,0,2904.37912940979,2904.376983642578,1333,1
392,control,26.0,9,0,2504.542350769043,2504.5392513275146,809,1
393,control,27.0,9,0,3291.529893875122,3291.5289402008057,972,1
394,control,28.0,11,1,890.7966613769531,890.7959461212158,1177,1
395,control,29.0,14,1,3289.6270751953125,3289.626121520996,964,1
396,control,30.0,17,1,724.0293025970459,724.027156829834,1076,1
1,quadbright,5.0,20,1,98.61087799072266,493.44396591186523,1093,1
2,quadbright,6.0,20,1,395.86782455444336,395.8618640899658,1086,1
3,quadbright,7.0,20,1,297.8370189666748,592.555046081543,1276,1
4,quadbright,8.0,20,1,394.6230411529541,394.6211338043213,1132,1
5,quadbright,9.0,20,1,99.09200668334961,494.0791130065918,1065,1
6,quadbright,10.0,20,1,395.59173583984375,395.58887481689453,1229,1
7,quadbright,11.0,20,1,491.7418956756592,491.73998832702637,1394,1
8,quadbright,12.0,20,1,494.95434761047363,494.9531555175781,1204,1
9,quadbright,13.0,20,1,614.9091720581055,614.9070262908936,1416,1
10,quadbright,14.0,20,1,595.4029560089111,595.3991413116455,1066,1
11,quadbright,15.0,20,1,493.8392639160156,493.8352108001709,1021,1
12,quadbright,16.0,20,1,494.77195739746094,494.765043258667,1195,1
13,quadbright,17.0,20,1,682.9712390899658,682.9702854156494,1107,1
14,quadbright,18.0,20,1,495.9690570831299,495.96405029296875,1484,1
15,quadbright,19.0,20,1,581.3779830932617,581.3767910003662,1131,1
16,quadbright,20.0,20,1,592.8950309753418,592.8909778594971,1474,1
17,quadbright,21.0,20,1,604.2118072509766,604.2108535766602,984,1
18,quadbright,22.0,20,1,515.5978202819824,515.5971050262451,826,1
19,quadbright,23.0,20,1,533.4019660949707,533.4000587463379,1112,1
20,quadbright,24.0,20,1,526.5872478485107,526.5860557556152,856,1
21,quadbright,25.0,20,1,428.01403999328613,428.0130863189697,1293,1
22,quadbright,26.0,20,1,724.9100208282471,724.9090671539307,1283,1
23,quadbright,27.0,20,1,494.5700168609619,494.5688247680664,1410,1
24,quadbright,28.0,20,1,592.2350883483887,592.2329425811768,1302,1
25,quadbright,29.0,20,1,505.23996353149414,505.2378177642822,1379,1
26,quadbright,30.0,20,1,595.4928398132324,595.4868793487549,1161,1
27,quadbright,5.0,20,1,99.32065010070801,504.41479682922363,1042,1
28,quadbright,6.0,20,1,98.67119789123535,528.6519527435303,1311,1
29,quadbright,7.0,20,1,97.84698486328125,493.23487281799316,809,1
30,quadbright,8.0,20,1,495.8510398864746,495.847225189209,1367,1
31,quadbright,9.0,20,1,493.8488006591797,493.8387870788574,1012,1
32,quadbright,10.0,20,1,494.2169189453125,494.2140579223633,1328,1
33,quadbright,11.0,20,1,493.85905265808105,493.85595321655273,1029,1
34,quadbright,12.0,20,1,597.1238613128662,597.1219539642334,1478,1
35,quadbright,13.0,20,1,493.72100830078125,493.71886253356934,1045,1
36,quadbright,14.0,20,1,491.7900562286377,491.7881488800049,806,1
37,quadbright,15.0,20,0,888.4410858154297,888.4391784667969,1438,1
38,quadbright,16.0,20,1,692.3019886016846,692.3000812530518,1243,1
39,quadbright,17.0,20,1,495.2092170715332,495.2082633972168,1444,1
40,quadbright,18.0,20,1,583.31298828125,583.3122730255127,1458,1
41,quadbright,19.0,20,1,493.38412284851074,493.3781623840332,851,1
42,quadbright,20.0,20,1,593.7891006469727,593.7881469726562,826,1
43,quadbright,21.0,20,1,594.1050052642822,594.1040515899658,935,1
44,quadbright,22.0,20,1,625.9162425994873,625.9081363677979,1273,1
45,quadbright,23.0,20,1,493.79825592041016,493.79420280456543,1125,1
46,quadbright,24.0,20,1,493.35503578186035,493.35384368896484,1188,1
47,quadbright,25.0,20,1,524.6751308441162,524.6729850769043,892,1
48,quadbright,26.0,20,1,594.6319103240967,594.6309566497803,1058,1
49,quadbright,27.0,20,1,590.2581214904785,590.2390480041504,1026,1
50,quadbright,28.0,20,1,498.0440139770508,498.04115295410156,1341,1
51,quadbright,29.0,20,1,496.97184562683105,496.96993827819824,1258,1
52,quadbright,30.0,20,1,693.6161518096924,693.6140060424805,1060,1
53,quadbright,5.0,17,1,199.4171142578125,593.8491821289062,1377,1
54,quadbright,6.0,17,1,99.59912300109863,526.7021656036377,814,1
55,quadbright,7.0,17,1,200.00696182250977,594.437837600708,919,1
56,quadbright,8.0,17,1,493.14188957214355,493.13998222351074,1191,1
57,quadbright,9.0,17,1,100.30102729797363,494.21000480651855,1333,1
58,quadbright,10.0,17,1,592.8959846496582,592.8940773010254,1012,1
59,quadbright,11.0,17,1,99.08199310302734,497.0362186431885,1428,0
60,quadbright,11.0,17,1,493.786096572876,493.78299713134766,906,1
61,quadbright,12.0,17,1,593.7449932098389,593.7390327453613,818,1
62,quadbright,13.0,17,1,493.1058883666992,493.1039810180664,1149,1
63,quadbright,14.0,17,1,692.608118057251,692.6038265228271,1171,1
64,quadbright,15.0,23,1,495.06306648254395,495.06211280822754,921,1
65,quadbright,16.0,17,1,405.5328369140625,405.5306911468506,1332,1
66,quadbright,17.0,17,1,428.3771514892578,428.3750057220459,1113,1
67,quadbright,18.0,17,1,526.6361236572266,526.6339778900146,1169,1
68,quadbright,19.0,17,1,494.25721168518066,494.25315856933594,1073,1
69,quadbright,20.0,17,1,509.11784172058105,509.11593437194824,899,1
70,quadbright,21.0,17,1,527.9800891876221,527.9769897460938,1499,1
71,quadbright,22.0,17,1,625.5528926849365,625.5497932434082,1334,1
72,quadbright,23.0,17,1,527.3668766021729,527.3659229278564,917,1
73,quadbright,24.0,17,1,725.5349159240723,725.5339622497559,1406,1
74,quadbright,25.0,17,1,625.1139640808105,625.1108646392822,1320,1
75,quadbright,26.0,17,1,723.2840061187744,723.2799530029297,1400,1
76,quadbright,27.0,17,1,594.520092010498,594.5181846618652,888,1
77,quadbright,28.0,17,1,494.75693702697754,494.7540760040283,1373,1
78,quadbright,29.0,17,0,1385.9760761260986,1385.9729766845703,1470,1
79,quadbright,30.0,17,1,492.6280975341797,492.6261901855469,1323,1
80,quadbright,5.0,17,1,99.06482696533203,494.351863861084,1087,1
81,quadbright,6.0,17,1,97.86009788513184,923.285961151123,1031,1
82,quadbright,7.0,17,1,98.48284721374512,532.0959091186523,1185,1
83,quadbright,8.0,17,1,498.1570243835449,498.1541633605957,1357,1
84,quadbright,9.0,17,1,497.15495109558105,497.15280532836914,1432,1
85,quadbright,10.0,17,1,499.722957611084,499.72009658813477,908,1
86,quadbright,11.0,17,1,494.99988555908203,494.9979782104492,1226,1
87,quadbright,12.0,17,1,494.2958354949951,494.2929744720459,1346,1
88,quadbright,13.0,17,1,99.58505630493164,393.3908939361572,1277,0
89,quadbright,13.0,17,1,593.1210517883301,593.1158065795898,1443,1
90,quadbright,14.0,17,1,494.37689781188965,494.3728446960449,970,1
91,quadbright,15.0,23,0,889.19997215271,889.193058013916,1475,1
92,quadbright,16.0,17,1,493.0880069732666,493.0858612060547,1169,1
93,quadbright,17.0,17,1,496.5319633483887,496.53005599975586,954,1
94,quadbright,18.0,17,1,394.90485191345215,394.90389823913574,1047,1
95,quadbright,19.0,17,1,525.6791114807129,525.672197341919,1156,1
96,quadbright,20.0,17,1,493.01671981811523,493.0145740509033,947,1
97,quadbright,21.0,17,1,495.1651096343994,495.1632022857666,930,1
98,quadbright,22.0,17,1,494.58932876586914,494.5862293243408,1370,1
99,quadbright,23.0,17,1,494.40670013427734,494.3978786468506,1403,1
100,quadbright,24.0,17,1,493.00670623779297,492.9988384246826,1339,1
101,quadbright,25.0,17,1,988.853931427002,988.8479709625244,1163,1
102,quadbright,26.0,17,1,493.5941696166992,493.5901165008545,1315,0
103,quadbright,26.0,17,1,594.1140651702881,594.1071510314941,1441,1
104,quadbright,27.0,17,1,624.6800422668457,624.6721744537354,1407,1
105,quadbright,28.0,17,1,1021.3029384613037,1021.298885345459,928,1
106,quadbright,29.0,20,1,426.82504653930664,426.821231842041,1147,1
107,quadbright,30.0,17,1,495.13697624206543,495.1341152191162,1404,1
108,quadbright,5.0,14,1,99.17283058166504,493.5429096221924,1374,1
109,quadbright,6.0,14,1,98.08206558227539,623.7549781799316,1308,0
110,quadbright,6.0,14,1,594.3517684936523,594.3458080291748,841,1
111,quadbright,7.0,14,1,99.42102432250977,395.6940174102783,970,1
112,quadbright,8.0,14,1,492.4948215484619,492.4929141998291,1453,1
113,quadbright,9.0,14,1,197.08704948425293,494.94290351867676,850,1
114,quadbright,10.0,14,1,394.7751522064209,394.7720527648926,982,1
115,quadbright,11.0,14,1,198.39191436767578,594.146728515625,1463,0
116,quadbright,11.0,14,1,493.1519031524658,493.1480884552002,909,1
117,quadbright,12.0,14,1,582.6029777526855,582.6020240783691,1384,1
118,quadbright,13.0,14,1,494.6751594543457,494.6742057800293,941,1
119,quadbright,14.0,14,1,502.6071071624756,502.60114669799805,846,1
120,quadbright,15.0,24,1,396.0001468658447,395.9989547729492,1017,0
121,quadbright,15.0,24,1,725.6579399108887,725.6569862365723,1467,1
122,quadbright,16.0,14,1,494.89593505859375,494.89402770996094,837,1
123,quadbright,17.0,14,1,625.6756782531738,625.6709098815918,869,1
124,quadbright,18.0,14,1,494.84992027282715,494.84896659851074,1308,1
125,quadbright,19.0,14,1,693.7100887298584,693.709135055542,1165,1
126,quadbright,20.0,14,1,693.0680274963379,693.0670738220215,1267,1
127,quadbright,21.0,14,1,598.872184753418,598.8690853118896,1132,1
128,quadbright,22.0,14,1,725.1849174499512,725.1687049865723,1012,1
129,quadbright,23.0,14,1,493.87598037719727,493.87192726135254,1425,0
130,quadbright,23.0,14,1,889.5628452301025,889.5611763000488,1106,1
131,quadbright,24.0,14,1,499.12095069885254,499.1140365600586,1390,1
132,quadbright,25.0,14,1,494.83299255371094,494.83203887939453,1427,1
133,quadbright,26.0,14,1,583.6880207061768,583.6870670318604,1182,1
134,quadbright,27.0,14,1,593.9860343933105,593.9841270446777,1067,1
135,quadbright,28.0,14,1,591.1400318145752,591.1381244659424,800,1
136,quadbright,29.0,20,1,692.9609775543213,692.9590702056885,903,1
137,quadbright,30.0,14,1,493.880033493042,493.8790798187256,1138,1
138,quadbright,5.0,14,1,98.55484962463379,988.4767532348633,1182,1
139,quadbright,6.0,14,1,198.4879970550537,495.3808784484863,1253,1
140,quadbright,7.0,14,1,199.90086555480957,595.5991744995117,1192,1
141,quadbright,8.0,14,1,99.00093078613281,398.1308937072754,1125,1
142,quadbright,9.0,14,1,691.0839080810547,691.0810470581055,1339,1
143,quadbright,10.0,14,1,198.22216033935547,560.1649284362793,818,1
144,quadbright,11.0,14,0,596.2040424346924,596.2009429931641,976,1
145,quadbright,12.0,14,1,495.772123336792,495.76282501220703,849,1
146,quadbright,13.0,14,1,491.67895317077637,491.67704582214355,1018,1
147,quadbright,14.0,14,1,485.3711128234863,485.3701591491699,1192,1
148,quadbright,15.0,24,1,494.53115463256836,494.52805519104004,1348,1
149,quadbright,16.0,14,1,594.3119525909424,594.3050384521484,1123,1
150,quadbright,17.0,14,1,593.6071872711182,593.6062335968018,838,1
151,quadbright,18.0,14,1,691.558837890625,691.5509700775146,1110,1
152,quadbright,19.0,14,1,496.258020401001,496.25396728515625,830,1
153,quadbright,20.0,14,1,526.7817974090576,526.7810821533203,930,1
154,quadbright,21.0,14,1,493.7889575958252,493.78490447998047,882,1
155,quadbright,22.0,14,1,989.4008636474609,989.3996715545654,1393,1
156,quadbright,23.0,14,0,691.6289329528809,691.6170120239258,1143,1
157,quadbright,24.0,14,1,593.646764755249,593.6460494995117,817,1
158,quadbright,25.0,14,1,492.82312393188477,492.8152561187744,1010,1
159,quadbright,26.0,14,1,494.3668842315674,494.365930557251,873,1
160,quadbright,27.0,14,1,582.4010372161865,582.3991298675537,1285,1
161,quadbright,28.0,14,1,693.1986808776855,693.1967735290527,1204,1
162,quadbright,29.0,18,1,494.8239326477051,494.8229789733887,1033,1
163,quadbright,30.0,14,1,693.1591033935547,693.1569576263428,833,1
164,quadbright,5.0,11,1,96.92716598510742,396.0690498352051,1208,1
165,quadbright,6.0,11,1,428.67398262023926,428.67207527160645,1034,1
166,quadbright,7.0,11,1,593.6989784240723,593.6980247497559,957,1
167,quadbright,8.0,11,1,130.56516647338867,515.6810283660889,1366,1
168,quadbright,9.0,11,1,200.1967430114746,527.6868343353271,901,1
169,quadbright,10.0,11,1,600.1949310302734,600.1920700073242,937,1
170,quadbright,11.0,17,1,592.8599834442139,592.858076095581,1096,1
171,quadbright,12.0,11,1,592.6940441131592,592.6897525787354,1136,1
172,quadbright,13.0,11,1,493.18718910217285,493.182897567749,1085,1
173,quadbright,14.0,11,1,790.2390956878662,790.2359962463379,1166,1
174,quadbright,15.0,23,1,497.59793281555176,497.59697914123535,1309,1
175,quadbright,16.0,11,1,691.8802261352539,691.8771266937256,1461,1
176,quadbright,17.0,11,1,493.7601089477539,493.75391006469727,832,1
177,quadbright,18.0,11,1,493.56603622436523,493.5622215270996,896,1
178,quadbright,19.0,11,1,495.0740337371826,495.0728416442871,1134,1
179,quadbright,20.0,11,1,592.5660133361816,592.5590991973877,1251,1
180,quadbright,21.0,11,1,493.48902702331543,493.4861660003662,1020,1
181,quadbright,22.0,11,1,593.4460163116455,593.4422016143799,992,1
182,quadbright,23.0,17,1,396.1820602416992,396.1813449859619,1463,1
183,quadbright,24.0,11,0,583.8408470153809,583.8401317596436,1461,1
184,quadbright,25.0,11,0,1088.7079238891602,1088.7038707733154,1358,1
185,quadbright,26.0,11,1,493.5460090637207,493.5429096221924,1314,1
186,quadbright,27.0,11,1,791.8610572814941,791.8598651885986,1309,1
187,quadbright,28.0,11,0,889.1539573669434,889.1489505767822,932,1
188,quadbright,29.0,18,1,691.3309097290039,691.3278102874756,1126,1
189,quadbright,30.0,11,0,692.5089359283447,692.5067901611328,1286,1
190,quadbright,5.0,11,1,494.8079586029053,494.80700492858887,913,1
191,quadbright,6.0,11,1,690.5837059020996,690.5820369720459,1194,1
192,quadbright,7.0,11,1,98.4201431274414,525.6171226501465,1032,1
193,quadbright,8.0,11,1,486.33289337158203,486.3319396972656,1366,1
194,quadbright,9.0,11,1,1087.6820087432861,1087.6779556274414,954,1
195,quadbright,10.0,11,1,988.5938167572021,988.5828495025635,1335,1
196,quadbright,11.0,17,1,494.57502365112305,494.57287788391113,877,1
197,quadbright,12.0,11,1,496.4871406555176,496.48404121398926,1443,1
198,quadbright,13.0,11,1,232.86128044128418,1229.8922538757324,1248,0
199,quadbright,13.0,11,1,98.83904457092285,1197.89719581604,1229,1
200,quadbright,14.0,11,1,691.1139488220215,691.1118030548096,972,0
201,quadbright,14.0,11,1,491.8849468231201,491.8828010559082,1316,1
202,quadbright,15.0,23,1,594.1879749298096,594.1870212554932,1280,1
203,quadbright,16.0,11,1,493.80993843078613,493.8008785247803,1330,1
204,quadbright,17.0,11,1,98.70219230651855,801.206111907959,1268,1
205,quadbright,18.0,11,1,1186.173915863037,1186.1660480499268,1121,1
206,quadbright,19.0,11,1,494.7359561920166,494.7350025177002,1298,1
207,quadbright,20.0,11,1,725.0728607177734,725.0728607177734,1422,1
208,quadbright,21.0,11,1,593.2810306549072,593.275785446167,905,1
209,quadbright,22.0,11,1,604.2301654815674,604.2220592498779,986,1
210,quadbright,23.0,17,1,593.8069820404053,593.804121017456,870,1
211,quadbright,24.0,14,1,493.6938285827637,493.69001388549805,1348,1
212,quadbright,25.0,14,1,494.6448802947998,494.6432113647461,1147,1
213,quadbright,26.0,11,1,879.3470859527588,879.3461322784424,1457,1
214,quadbright,27.0,11,1,890.0768756866455,890.070915222168,899,1
215,quadbright,28.0,14,1,591.6292667388916,591.6240215301514,1408,0
216,quadbright,28.0,14,0,693.511962890625,693.5110092163086,970,1
217,quadbright,29.0,17,0,685.6026649475098,685.6019496917725,847,1
218,quadbright,30.0,14,1,800.482988357544,800.4651069641113,1331,1
219,quadbright,5.0,8,1,99.88689422607422,495.39804458618164,1153,1
220,quadbright,6.0,8,1,98.83594512939453,494.5237636566162,962,1
221,quadbright,7.0,8,1,98.04892539978027,516.772985458374,961,1
222,quadbright,8.0,8,1,529.0398597717285,529.0350914001465,986,1
223,quadbright,9.0,8,1,488.30699920654297,488.30580711364746,1032,1
224,quadbright,10.0,8,1,1782.499074935913,1782.4969291687012,931,1
225,quadbright,11.0,15,1,592.9880142211914,592.9760932922363,876,1
226,quadbright,12.0,8,1,491.69111251831055,491.68920516967773,1376,1
227,quadbright,13.0,8,1,494.2972660064697,494.2951202392578,1316,1
228,quadbright,14.0,8,1,505.9089660644531,505.9061050415039,1100,1
229,quadbright,15.0,22,1,503.4019947052002,503.3872127532959,988,1
230,quadbright,16.0,8,0,482.9978942871094,482.99598693847656,1120,1
231,quadbright,17.0,8,1,695.5041885375977,695.5020427703857,851,1
232,quadbright,18.0,8,1,791.9459342956543,791.9449806213379,1214,1
233,quadbright,19.0,8,1,593.9912796020508,593.9860343933105,844,1
234,quadbright,20.0,8,1,689.9220943450928,689.9199485778809,861,1
235,quadbright,21.0,8,1,791.9309139251709,791.9297218322754,1100,1
236,quadbright,22.0,8,0,596.3020324707031,596.3010787963867,1174,1
237,quadbright,23.0,15,1,693.0460929870605,693.044900894165,1104,1
238,quadbright,24.0,14,1,484.41410064697266,484.41290855407715,1425,1
239,quadbright,25.0,14,1,494.86708641052246,494.86613273620605,1052,1
240,quadbright,26.0,8,1,623.358964920044,623.3561038970947,957,1
241,quadbright,27.0,8,0,692.842960357666,692.842960357666,1336,1
242,quadbright,28.0,17,1,690.7377243041992,690.7367706298828,1008,1
243,quadbright,29.0,18,1,790.0071144104004,790.0023460388184,1374,1
244,quadbright,30.0,14,0,802.3340702056885,802.3319244384766,1497,1
245,quadbright,5.0,8,1,525.4578590393066,525.4552364349365,1085,1
246,quadbright,6.0,8,1,199.2628574371338,595.9081649780273,1044,1
247,quadbright,7.0,8,1,198.1070041656494,604.6769618988037,1192,1
248,quadbright,8.0,8,1,492.59495735168457,492.59281158447266,1005,1
249,quadbright,9.0,8,1,296.3089942932129,595.0641632080078,1058,1
250,quadbright,10.0,8,1,493.1299686431885,493.12305450439453,1406,1
251,quadbright,11.0,15,1,592.7259922027588,592.7219390869141,980,1
252,quadbright,12.0,8,1,594.1309928894043,594.130277633667,880,1
253,quadbright,13.0,8,0,1077.4903297424316,1077.4891376495361,1346,1
254,quadbright,14.0,8,1,701.4930248260498,701.4901638031006,1006,1
255,quadbright,15.0,22,1,398.4699249267578,398.4668254852295,803,1
256,quadbright,16.0,11,1,494.5111274719238,494.5101737976074,846,1
257,quadbright,17.0,8,0,890.7210826873779,890.7198905944824,874,1
258,quadbright,18.0,8,1,591.7341709136963,591.7320251464844,1023,1
259,quadbright,19.0,8,1,693.7789916992188,693.7739849090576,1007,1
260,quadbright,20.0,8,0,715.3968811035156,715.3959274291992,1309,1
261,quadbright,21.0,8,0,823.6360549926758,823.634147644043,1434,1
262,quadbright,22.0,11,1,626.1758804321289,626.1749267578125,1121,1
263,quadbright,23.0,15,1,625.0219345092773,625.0197887420654,854,1
264,quadbright,24.0,12,1,495.4869747161865,495.4862594604492,997,1
265,quadbright,25.0,12,1,690.2430057525635,690.2351379394531,1040,1
266,quadbright,26.0,8,1,1032.249927520752,1032.2439670562744,1500,1
267,quadbright,27.0,11,1,493.4210777282715,493.4191703796387,1414,1
268,quadbright,28.0,17,0,495.6638813018799,495.66102027893066,906,1
269,quadbright,29.0,18,1,624.8109340667725,624.8078346252441,1356,1
270,quadbright,30.0,15,1,723.5958576202393,723.5918045043945,912,1
271,quadbright,5.0,5,1,98.23012351989746,625.1471042633057,1162,1
272,quadbright,6.0,5,1,98.77490997314453,592.940092086792,978,1
273,quadbright,7.0,5,1,98.21486473083496,589.6129608154297,1460,1
274,quadbright,8.0,5,1,1100.3129482269287,1100.3079414367676,1229,1
275,quadbright,9.0,5,1,890.8171653747559,890.8159732818604,841,1
276,quadbright,10.0,5,1,198.37379455566406,693.3789253234863,907,1
277,quadbright,11.0,14,1,692.5671100616455,692.5630569458008,864,1
278,quadbright,12.0,5,1,725.6760597229004,725.675106048584,1464,1
279,quadbright,13.0,11,1,495.7730770111084,495.7718849182129,890,1
280,quadbright,14.0,5,1,692.4810409545898,692.4798488616943,922,1
281,quadbright,15.0,21,1,496.6869354248047,496.6857433319092,1309,1
282,quadbright,16.0,11,1,780.1709175109863,780.1699638366699,804,1
283,quadbright,17.0,11,1,693.3090686798096,693.2950019836426,982,1
284,quadbright,18.0,5,0,919.832706451416,919.827938079834,1408,1
285,quadbright,19.0,5,1,923.2897758483887,923.27880859375,1334,1
286,quadbright,20.0,11,1,691.6439533233643,691.6427612304688,824,1
287,quadbright,21.0,11,1,591.2408828735352,591.2349224090576,916,1
288,quadbright,22.0,11,1,692.7990913391113,692.7928924560547,1397,1
289,quadbright,23.0,14,1,494.3380355834961,494.33302879333496,1159,1
290,quadbright,24.0,12,1,691.2381649017334,691.2319660186768,939,1
291,quadbright,25.0,12,1,494.7857856750488,494.7848320007324,867,1
292,quadbright,26.0,5,0,492.3679828643799,492.36607551574707,1309,1
293,quadbright,27.0,11,0,682.4970245361328,682.4960708618164,815,1
294,quadbright,28.0,18,1,880.5429935455322,880.5418014526367,1318,1
295,quadbright,29.0,17,1,494.4751262664795,494.46988105773926,1100,1
296,quadbright,30.0,15,0,725.0158786773682,725.0149250030518,1491,1
297,quadbright,5.0,5,1,98.37889671325684,494.7330951690674,1072,1
298,quadbright,6.0,5,1,200.09183883666992,625.6027221679688,1493,1
299,quadbright,7.0,5,1,583.9622020721436,583.9612483978271,824,1
300,quadbright,8.0,5,1,197.4337100982666,494.2128658294678,1266,1
301,quadbright,9.0,5,0,593.9409732818604,593.940019607544,1318,1
302,quadbright,10.0,5,1,199.0060806274414,726.2210845947266,1385,1
303,quadbright,11.0,14,1,526.8027782440186,526.8018245697021,1355,1
304,quadbright,12.0,5,1,1219.2909717559814,1219.289779663086,1056,1
305,quadbright,13.0,11,1,591.5839672088623,591.5818214416504,1177,1
306,quadbright,14.0,5,0,693.1588649749756,693.1567192077637,917,1
307,quadbright,15.0,21,1,593.9650535583496,593.9640998840332,1254,1
308,quadbright,16.0,9,1,582.9260349273682,582.9250812530518,1202,1
309,quadbright,17.0,11,1,593.2877063751221,593.28293800354,1421,1
310,quadbright,18.0,8,1,1130.6049823760986,1130.6021213531494,842,1
311,quadbright,19.0,5,0,688.9998912811279,688.9951229095459,1036,1
312,quadbright,20.0,11,0,690.9909248352051,690.9849643707275,1448,1
313,quadbright,21.0,11,1,494.5380687713623,494.5368766784668,1423,1
314,quadbright,22.0,9,1,692.9631233215332,692.9621696472168,1034,1
315,quadbright,23.0,14,1,825.8440494537354,825.8428573608398,890,1
316,quadbright,24.0,11,1,692.1982765197754,692.1942234039307,805,1
317,quadbright,25.0,11,1,492.2950267791748,492.293119430542,815,1
318,quadbright,26.0,8,0,692.852258682251,692.8510665893555,1386,1
319,quadbright,27.0,12,1,585.4988098144531,585.4988098144531,1060,1
320,quadbright,28.0,18,1,494.9336051940918,494.9328899383545,1045,1
321,quadbright,29.0,17,1,493.53909492492676,493.5312271118164,972,1
322,quadbright,30.0,16,0,615.4630184173584,615.4630184173584,845,1
323,quadbright,5.0,2,1,124.60708618164062,1509.904146194458,1475,1
324,quadbright,6.0,2,0,493.9420223236084,493.9379692077637,862,1
325,quadbright,7.0,2,1,889.5087242126465,889.5070552825928,1185,1
326,quadbright,8.0,2,0,98.1900691986084,494.0962791442871,1413,1
327,quadbright,9.0,8,1,297.6219654083252,693.317174911499,1020,1
328,quadbright,10.0,2,0,890.8939361572266,890.8898830413818,1033,1
329,quadbright,11.0,12,1,596.4310169219971,596.4288711547852,1413,1
330,quadbright,12.0,2,1,790.2729511260986,790.2650833129883,1041,1
331,quadbright,13.0,9,0,792.2990322113037,792.2980785369873,899,1
332,quadbright,14.0,8,0,592.3159122467041,592.3089981079102,1082,1
333,quadbright,15.0,20,1,536.1707210540771,536.1628532409668,810,1
334,quadbright,16.0,9,1,802.6909828186035,802.6852607727051,1061,1
335,quadbright,17.0,9,1,791.2781238555908,791.2750244140625,1209,1
336,quadbright,18.0,8,0,988.7101650238037,988.7020587921143,959,1
337,quadbright,19.0,8,0,695.1968669891357,695.1949596405029,1460,1
338,quadbright,20.0,12,0,788.140058517456,788.1371974945068,1424,1
339,quadbright,21.0,9,1,483.004093170166,483.0031394958496,1167,1
340,quadbright,22.0,9,0,497.2801208496094,497.27892875671387,1246,1
341,quadbright,23.0,12,0,1020.7071304321289,1020.704984664917,979,1
342,quadbright,24.0,11,1,722.5780487060547,722.5708961486816,1480,1
343,quadbright,25.0,11,0,790.7593250274658,790.7571792602539,1397,1
344,quadbright,26.0,11,1,589.5688533782959,589.5678997039795,1289,1
345,quadbright,27.0,12,0,593.2300090789795,593.2278633117676,1099,1
346,quadbright,28.0,17,1,932.9018592834473,932.8970909118652,880,1
347,quadbright,29.0,16,1,1782.06205368042,1782.0608615875244,1355,1
348,quadbright,30.0,17,0,791.996955871582,791.9943332672119,1080,1
349,quadbright,5.0,2,0,98.83499145507812,492.45595932006836,830,1
350,quadbright,6.0,5,1,494.0609931945801,494.05622482299805,1224,1
351,quadbright,7.0,2,1,98.53005409240723,592.0019149780273,1436,1
352,quadbright,8.0,5,1,790.520191192627,790.518045425415,1454,1
353,quadbright,9.0,8,1,494.11702156066895,494.110107421875,1160,1
354,quadbright,10.0,5,0,598.895788192749,598.8926887512207,1241,1
355,quadbright,11.0,12,1,493.6718940734863,493.6680793762207,1216,1
356,quadbright,12.0,2,1,801.2700080871582,801.2669086456299,1246,1
357,quadbright,13.0,11,1,590.9829139709473,590.9738540649414,1158,1
358,quadbright,14.0,11,1,692.8818225860596,692.8808689117432,1472,1
359,quadbright,15.0,20,1,593.4462547302246,593.4441089630127,807,1
360,quadbright,16.0,8,0,1131.1538219451904,1131.1490535736084,1361,1
361,quadbright,17.0,9,1,626.1959075927734,626.194953918457,1239,1
362,quadbright,18.0,9,1,890.106201171875,890.1040554046631,1099,1
363,quadbright,19.0,11,0,2208.237886428833,2208.2359790802,1162,1
364,quadbright,20.0,14,0,2859.3461513519287,2859.344959259033,811,1
365,quadbright,21.0,9,0,2305.434226989746,2305.4261207580566,853,1
366,quadbright,22.0,11,0,2507.490873336792,2507.488965988159,965,1
367,quadbright,23.0,14,1,2298.647880554199,2298.6466884613037,915,1
368,quadbright,24.0,9,0,2706.536054611206,2706.5320014953613,1143,1
369,quadbright,25.0,12,1,790.4582023620605,790.4551029205322,927,1
370,quadbright,26.0,11,0,3802.839756011963,3802.8388023376465,893,1
371,quadbright,27.0,13,0,3094.0310955047607,3094.0301418304443,1204,1
372,quadbright,28.0,17,0,983.7808609008789,983.7799072265625,1476,1
373,quadbright,29.0,16,0,790.3878688812256,790.381908416748,1064,1
374,quadbright,5.0,5,1,97.37229347229004,491.1022186279297,1007,1
375,quadbright,6.0,5,0,208.98914337158203,3309.5269203186035,1415,1
376,quadbright,7.0,1,0,100.09121894836426,1683.204174041748,955,1
377,quadbright,8.0,5,0,1210.202932357788,1210.2010250091553,1378,1
378,quadbright,9.0,6,1,891.2291526794434,891.2250995635986,1005,1
379,quadbright,10.0,8,1,694.3328380584717,694.326639175415,1081,1
380,quadbright,11.0,11,1,637.5010013580322,637.49098777771,867,1
381,quadbright,12.0,1,0,2604.2520999908447,2604.248046875,1169,1
382,quadbright,13.0,11,1,999.9055862426758,999.8998641967773,1018,1
383,quadbright,14.0,11,1,593.6470031738281,593.6329364776611,946,1
384,quadbright,15.0,19,1,593.2626724243164,593.26171875,1477,1
385,quadbright,16.0,9,1,494.9781894683838,494.97389793395996,1063,1
386,quadbright,17.0,8,0,2410.3779792785645,2410.377025604248,1152,0
387,quadbright,17.0,8,0,2298.882007598877,2298.8810539245605,921,1
388,quadbright,18.0,9,1,1085.5600833892822,1085.5579376220703,1314,1
389,quadbright,19.0,14,1,4295.732021331787,4295.730829238892,1362,1
390,quadbright,20.0,15,1,595.5150127410889,595.512866973877,907,1
391,quadbright,21.0,11,1,682.5370788574219,682.5370788574219,1166,1
392,quadbright,22.0,12,0,3111.032724380493,3111.0310554504395,1141,1
393,quadbright,23.0,14,0,1880.359172821045,1880.3539276123047,1306,1
394,quadbright,24.0,11,1,493.63088607788086,493.62897872924805,905,1
395,quadbright,25.0,12,1,493.4110641479492,493.4089183807373,1324,1
396,quadbright,26.0,12,0,2409.976005554199,2409.9721908569336,957,1
397,quadbright,27.0,14,1,592.6299095153809,592.6282405853271,806,1
398,quadbright,28.0,18,1,692.5258636474609,692.518949508667,1013,1
399,quadbright,29.0,17,0,3820.6028938293457,3820.600986480713,1446,1
