trial,condition,eccentricity,magnitude,correct,srt_ms,keyboard_rt_ms,pre_change_ms,valid
1,control,5.0,20,1,99.79081153869629,426.9421100616455,1300,1
2,control,6.0,20,1,197.47185707092285,494.17901039123535,1477,1
3,control,7.0,20,1,98.94990921020508,394.0150737762451,1122,1
4,control,8.0,20,1,97.85890579223633,491.5590286254883,991,1
5,control,9.0,20,1,494.24290657043457,494.24099922180176,1108,1
6,control,10.0,20,1,98.98090362548828,493.35503578186035,844,1
7,control,11.0,20,1,493.8619136810303,493.85714530944824,873,1
8,control,12.0,20,1,1286.0829830169678,1286.0777378082275,952,1
9,control,13.0,20,1,98.50597381591797,394.9859142303467,1408,1
10,control,14.0,20,1,623.3680248260498,623.3649253845215,1400,1
11,control,15.0,20,1,691.7877197265625,691.7829513549805,843,1
12,control,16.0,20,1,493.76797676086426,493.76511573791504,1427,1
13,control,17.0,20,1,397.036075592041,397.0310688018799,1327,1
14,control,18.0,20,1,98.87909889221191,492.6109313964844,1497,1
15,control,19.0,20,1,624.4730949401855,624.4709491729736,1441,1
16,control,20.0,20,1,493.61586570739746,493.6089515686035,856,1
17,control,21.0,20,1,427.51598358154297,427.51312255859375,1173,1
18,control,22.0,20,1,493.9839839935303,493.98207664489746,1042,1
19,control,23.0,20,1,493.6978816986084,493.69287490844727,809,1
20,control,24.0,20,1,493.4260845184326,493.422269821167,1360,1
21,control,25.0,20,1,690.8259391784668,690.8228397369385,812,1
22,control,26.0,20,1,492.1243190765381,492.1221733093262,1421,1
23,control,27.0,20,1,593.1050777435303,593.101978302002,1137,1
24,control,28.0,20,1,723.5209941864014,723.5147953033447,1091,1
25,control,29.0,20,1,526.630163192749,526.6249179840088,1357,1
26,control,30.0,20,1,691.2581920623779,691.2572383880615,1115,1
27,control,5.0,20,1,99.17593002319336,493.2708740234375,1205,1
28,control,6.0,20,1,98.24585914611816,1187.4678134918213,1078,1
29,control,7.0,20,1,525.0840187072754,525.0809192657471,1214,1
30,control,8.0,20,1,98.0377197265625,526.4039039611816,859,1
31,control,9.0,20,1,99.40123558044434,395.34902572631836,1358,1
32,control,10.0,20,1,493.8678741455078,493.85976791381836,1193,1
33,control,11.0,20,1,394.37413215637207,394.36888694763184,935,1
34,control,12.0,20,1,592.540979385376,592.536211013794,925,1
35,control,13.0,20,1,492.39087104797363,492.3899173736572,970,1
36,control,14.0,20,1,394.7570323944092,394.75297927856445,1500,1
37,control,15.0,20,1,395.0061798095703,395.0009346008301,1012,1
38,control,16.0,20,1,494.5862293243408,494.581937789917,987,1
39,control,17.0,20,1,1219.3598747253418,1219.3560600280762,889,1
40,control,18.0,20,1,525.6850719451904,525.6760120391846,1007,1
41,control,19.0,20,1,592.8618907928467,592.8587913513184,970,1
42,control,20.0,20,1,492.9220676422119,492.9201602935791,1319,1
43,control,21.0,20,1,592.0729637145996,592.0708179473877,823,1
44,control,22.0,20,1,395.4460620880127,395.4429626464844,1319,1
45,control,23.0,20,1,593.1463241577148,593.1410789489746,1145,1
46,control,24.0,20,1,593.9350128173828,593.9278602600098,1180,1
47,control,25.0,20,1,496.4439868927002,496.4420795440674,1186,1
48,control,26.0,20,1,691.7178630828857,691.7157173156738,864,1
49,control,27.0,20,1,493.82495880126953,493.8199520111084,904,1
50,control,28.0,20,1,525.8450508117676,525.8429050445557,1253,1
51,control,29.0,20,1,724.7178554534912,724.7087955474854,919,1
52,control,30.0,20,1,691.3559436798096,691.3537979125977,1140,1
53,control,5.0,17,1,194.9911117553711,525.8657932281494,1479,1
54,control,6.0,17,1,99.06506538391113,394.3600654602051,1044,1
55,control,7.0,17,1,99.78699684143066,693.2311058044434,1228,1
56,control,8.0,17,1,98.14119338989258,493.38531494140625,1071,1
57,control,9.0,17,1,593.1529998779297,593.1448936462402,1367,1
58,control,10.0,17,1,198.14801216125488,592.4980640411377,1004,1
59,control,11.0,17,1,493.46208572387695,493.4580326080322,935,1
60,control,12.0,17,1,428.5759925842285,428.5731315612793,832,1
61,control,13.0,17,1,1119.0729141235352,1119.067907333374,950,1
62,control,14.0,17,1,889.1880512237549,889.185905456543,1214,1
63,control,15.0,17,1,494.42481994628906,494.42291259765625,940,1
64,control,16.0,17,1,587.5952243804932,587.5940322875977,1428,1
65,control,17.0,17,1,592.4019813537598,592.3991203308105,910,1
66,control,18.0,17,1,99.33018684387207,1415.9870147705078,1066,1
67,control,19.0,17,0,823.2278823852539,823.2259750366211,934,1
68,control,20.0,17,1,494.5847988128662,494.5797920227051,853,1
69,control,21.0,17,1,492.71583557128906,492.71392822265625,865,1
70,control,22.0,17,1,493.86000633239746,493.8549995422363,1017,1
71,control,23.0,17,0,393.62287521362305,393.62096786499023,1140,1
72,control,24.0,17,1,501.9998550415039,501.98888778686523,1276,1
73,control,25.0,17,1,692.1288967132568,692.1257972717285,949,1
74,control,26.0,17,1,593.5859680175781,593.5811996459961,916,1
75,control,27.0,17,1,494.43602561950684,494.4331645965576,925,1
76,control,28.0,17,1,1086.9996547698975,1086.998701095581,1047,1
77,control,29.0,17,1,493.96467208862305,493.96300315856934,838,1
78,control,30.0,17,1,689.446210861206,689.4412040710449,1080,1
79,control,5.0,17,1,626.3091564178467,626.3060569763184,1124,1
80,control,6.0,17,1,98.51288795471191,1120.1729774475098,1350,1
81,control,7.0,17,1,498.3408451080322,498.3377456665039,1327,1
82,control,8.0,17,1,98.71888160705566,495.81003189086914,895,1
83,control,9.0,17,1,100.16393661499023,494.3530559539795,1107,1
84,control,10.0,17,1,593.5168266296387,593.513011932373,1271,1
85,control,11.0,17,1,98.34527969360352,492.6140308380127,976,1
86,control,12.0,17,1,597.1908569335938,597.1877574920654,1199,1
87,control,13.0,17,1,592.688798904419,592.6840305328369,938,1
88,control,14.0,17,1,98.32000732421875,493.0589199066162,1451,1
89,control,15.0,17,1,724.675178527832,724.6701717376709,1226,1
90,control,16.0,17,1,595.707893371582,595.7069396972656,832,1
91,control,17.0,17,1,395.2159881591797,395.21217346191406,962,1
92,control,18.0,17,1,493.8499927520752,493.84284019470215,1482,1
93,control,19.0,20,1,396.72183990478516,1285.7530117034912,1480,1
94,control,20.0,17,1,493.6399459838867,493.6351776123047,1306,1
95,control,21.0,17,1,592.8540229797363,592.850923538208,1168,1
96,control,22.0,17,1,494.06909942626953,494.0659999847412,900,1
97,control,23.0,20,1,491.2559986114502,491.2528991699219,1189,1
98,control,24.0,17,1,1186.819076538086,1186.816930770874,1072,1
99,control,25.0,17,1,492.8169250488281,492.8090572357178,951,1
100,control,26.0,17,1,589.1819000244141,589.1799926757812,1225,1
101,control,27.0,17,1,593.0988788604736,593.0931568145752,1243,1
102,control,28.0,17,1,197.84092903137207,593.148946762085,1341,1
103,control,29.0,17,1,594.2728519439697,594.2699909210205,1121,1
104,control,30.0,17,1,790.9202575683594,790.9183502197266,970,1
105,control,5.0,14,1,98.85692596435547,1119.9009418487549,1272,1
106,control,6.0,14,1,593.8997268676758,593.8887596130371,1314,1
107,control,7.0,14,1,1120.6037998199463,1120.6016540527344,1408,1
108,control,8.0,14,1,99.20096397399902,395.51591873168945,1487,1
109,control,9.0,14,1,98.94680976867676,395.05577087402344,1313,1
110,control,10.0,14,1,98.64497184753418,493.52192878723145,994,1
111,control,11.0,14,1,526.3330936431885,526.3271331787109,960,1
112,control,12.0,14,1,426.33700370788574,426.3310432434082,1359,1
113,control,13.0,14,1,426.9449710845947,426.9418716430664,1264,1
114,control,14.0,14,1,197.6931095123291,525.5060195922852,1028,1
115,control,15.0,14,1,493.1039810180664,493.1020736694336,1361,1
116,control,16.0,14,1,394.2749500274658,394.273042678833,1489,1
117,control,17.0,14,1,493.7319755554199,493.7300682067871,1334,1
118,control,18.0,14,1,593.8270092010498,593.825101852417,1263,1
119,control,19.0,20,1,1020.4710960388184,1020.470142364502,1402,1
120,control,20.0,14,1,494.14801597595215,494.1432476043701,1373,1
121,control,21.0,14,1,493.2091236114502,493.2072162628174,1159,1
122,control,22.0,14,1,495.82695960998535,495.819091796875,1393,1
123,control,23.0,20,1,493.9908981323242,493.9889907836914,1114,1
124,control,24.0,14,1,492.04564094543457,492.04277992248535,1234,1
125,control,25.0,14,1,494.1232204437256,494.1213130950928,1445,1
126,control,26.0,14,1,593.1451320648193,593.1379795074463,1016,1
127,control,27.0,14,1,493.6549663543701,493.6530590057373,812,1
128,control,28.0,14,1,625.4909038543701,625.4880428314209,1229,1
129,control,29.0,14,0,592.7059650421143,592.7040576934814,810,1
130,control,30.0,14,1,890.4209136962891,890.4151916503906,1442,1
131,control,5.0,14,1,98.66595268249512,493.5770034790039,1321,1
132,control,6.0,14,1,98.33025932312012,493.7930107116699,1078,1
133,control,7.0,14,1,199.20706748962402,594.1348075866699,1080,1
134,control,8.0,14,1,99.1201400756836,494.2052364349365,1020,1
135,control,9.0,14,1,195.9209442138672,491.4560317993164,829,1
136,control,10.0,14,1,99.11584854125977,395.4019546508789,974,1
137,control,11.0,14,1,593.3630466461182,593.3589935302734,1429,1
138,control,12.0,14,1,99.12705421447754,427.15001106262207,1215,1
139,control,13.0,14,0,197.48306274414062,2506.174087524414,933,1
140,control,14.0,14,1,624.4580745697021,624.4521141052246,925,1
141,control,15.0,14,1,593.0969715118408,593.0938720703125,977,1
142,control,16.0,14,1,494.0800666809082,494.0779209136963,1135,1
143,control,17.0,14,1,592.2329425811768,592.2307968139648,1212,1
144,control,18.0,14,1,392.69280433654785,392.68994331359863,1178,1
145,control,19.0,18,1,493.42894554138184,493.4267997741699,1235,1
146,control,20.0,14,1,494.51184272766113,494.5096969604492,1056,1
147,control,21.0,14,1,493.2842254638672,493.2820796966553,1070,1
148,control,22.0,14,1,891.066312789917,891.0651206970215,1346,1
149,control,23.0,18,1,493.15404891967773,493.1519031524658,1178,1
150,control,24.0,14,1,592.7290916442871,592.7200317382812,838,1
151,control,25.0,14,1,593.6200618743896,593.6181545257568,1321,1
152,control,26.0,14,1,591.670036315918,591.670036315918,855,1
153,control,27.0,14,1,493.23296546936035,493.23105812072754,1143,1
154,control,28.0,14,1,493.73793601989746,493.7329292297363,834,1
155,control,29.0,17,1,592.7450656890869,592.7419662475586,1005,1
156,control,30.0,14,1,493.57104301452637,493.57008934020996,1016,1
157,control,5.0,11,1,198.55904579162598,593.3711528778076,1081,1
158,control,6.0,11,1,101.17316246032715,497.1590042114258,1429,1
159,control,7.0,11,1,198.92096519470215,593.4326648712158,801,1
160,control,8.0,11,1,98.19579124450684,526.5610218048096,1486,1
161,control,9.0,11,1,1218.216896057129,1218.214988708496,1036,1
162,control,10.0,11,1,98.61111640930176,493.79897117614746,1134,1
163,control,11.0,11,1,296.7209815979004,494.4770336151123,1354,1
164,control,12.0,11,1,593.2810306549072,593.2769775390625,1257,1
165,control,13.0,17,0,397.26996421813965,1187.8070831298828,1429,1
166,control,14.0,11,1,94.19584274291992,493.00599098205566,1044,1
167,control,15.0,11,1,594.8319435119629,594.8290824890137,1180,1
168,control,16.0,11,1,592.8761959075928,592.8709506988525,834,1
169,control,17.0,11,1,493.7930107116699,493.7899112701416,1141,1
170,control,18.0,11,1,493.99495124816895,493.9901828765869,941,1
171,control,19.0,18,1,593.1861400604248,593.1823253631592,1179,1
172,control,20.0,11,1,593.209981918335,593.203067779541,1485,1
173,control,21.0,11,1,594.7761535644531,594.7692394256592,1305,1
174,control,22.0,11,1,593.250036239624,593.2481288909912,1117,1
175,control,23.0,18,0,789.9789810180664,789.9699211120605,827,1
176,control,24.0,11,1,889.4138336181641,889.4078731536865,880,1
177,control,25.0,11,1,691.6060447692871,691.6038990020752,1419,1
178,control,26.0,11,1,624.3758201599121,624.3729591369629,1177,1
179,control,27.0,11,1,624.9032020568848,624.9001026153564,872,1
180,control,28.0,11,1,692.1341419219971,692.1300888061523,1357,1
181,control,29.0,17,1,890.3689384460449,890.3648853302002,908,1
182,control,30.0,11,0,789.7300720214844,789.726972579956,1222,1
183,control,5.0,11,1,98.36196899414062,592.5049781799316,995,1
184,control,6.0,11,1,98.18601608276367,493.34716796875,1147,1
185,control,7.0,11,1,99.3959903717041,593.2228565216064,942,1
186,control,8.0,11,1,197.83806800842285,592.4890041351318,1009,1
187,control,9.0,11,1,596.0702896118164,596.0640907287598,839,1
188,control,10.0,11,1,98.74606132507324,491.03808403015137,1061,1
189,control,11.0,11,1,98.8302230834961,591.8619632720947,941,1
190,control,12.0,11,1,98.65498542785645,493.7741756439209,998,1
191,control,13.0,20,1,493.4537410736084,493.4499263763428,1142,1
192,control,14.0,11,1,493.7102794647217,493.70813369750977,1062,1
193,control,15.0,11,1,592.5779342651367,592.5760269165039,897,1
194,control,16.0,11,0,1187.4117851257324,1187.4089241027832,1156,1
195,control,17.0,11,1,594.066858291626,594.0642356872559,1369,1
196,control,18.0,11,1,494.0450191497803,494.04120445251465,1228,1
197,control,19.0,17,1,493.29113960266113,493.2899475097656,1358,1
198,control,20.0,11,1,493.2270050048828,493.2219982147217,1097,1
199,control,21.0,11,1,593.4720039367676,593.4698581695557,1163,1
200,control,22.0,11,1,889.5578384399414,889.5559310913086,1193,0
201,control,22.0,11,1,595.8609580993652,595.8590507507324,1306,1
202,control,23.0,20,1,198.03476333618164,494.48394775390625,872,1
203,control,24.0,11,1,592.371940612793,592.3700332641602,1461,1
204,control,25.0,11,0,889.4321918487549,889.4290924072266,1281,1
205,control,26.0,11,1,823.1039047241211,823.1029510498047,1010,1
206,control,27.0,11,1,1286.4301204681396,1286.4270210266113,1396,1
207,control,28.0,11,0,691.2930011749268,691.2891864776611,834,1
208,control,29.0,15,1,495.8832263946533,495.8810806274414,1430,1
209,control,30.0,14,1,99.32589530944824,890.1100158691406,800,0
210,control,30.0,14,0,922.3763942718506,922.3732948303223,1072,1
211,control,5.0,8,1,100.00014305114746,989.5870685577393,1210,1
212,control,6.0,8,1,101.27425193786621,496.37413024902344,855,1
213,control,7.0,8,1,197.11995124816895,592.796802520752,1201,1
214,control,8.0,8,1,98.34814071655273,592.5731658935547,993,1
215,control,9.0,8,1,495.3501224517822,495.3479766845703,1315,1
216,control,10.0,8,1,99.19595718383789,494.50206756591797,892,1
217,control,11.0,8,1,98.53625297546387,525.4173278808594,1160,1
218,control,12.0,8,1,130.96332550048828,526.6091823577881,1227,1
219,control,13.0,20,1,96.86088562011719,493.4835433959961,1396,1
220,control,14.0,8,0,890.3799057006836,890.3751373291016,1051,1
221,control,15.0,8,1,791.1660671234131,791.1632061004639,874,1
222,control,16.0,14,1,592.63014793396,592.628002166748,1193,1
223,control,17.0,8,1,527.9538631439209,527.946949005127,1419,1
224,control,18.0,8,0,790.9159660339355,790.91477394104,995,1
225,control,19.0,17,1,1088.0229473114014,1088.0169868469238,1489,1
226,control,20.0,8,1,492.6257133483887,492.62380599975586,1060,1
227,control,21.0,8,1,691.9701099395752,691.9679641723633,1327,1
228,control,22.0,8,1,593.2168960571289,593.2118892669678,965,1
229,control,23.0,20,1,494.1220283508301,494.11702156066895,1355,1
230,control,24.0,8,1,592.559814453125,592.552900314331,1464,1
231,control,25.0,14,1,493.41487884521484,493.4120178222656,1163,1
232,control,26.0,8,1,724.8220443725586,724.8203754425049,1197,1
233,control,27.0,8,1,625.8499622344971,625.8480548858643,1454,1
234,control,28.0,14,0,691.7829513549805,691.7812824249268,1160,1
235,control,29.0,15,1,690.4418468475342,690.4408931732178,876,1
236,control,30.0,17,1,493.06702613830566,493.06583404541016,1474,1
237,control,5.0,8,1,592.8277969360352,592.8258895874023,820,1
238,control,6.0,8,1,98.57678413391113,593.2369232177734,1381,1
239,control,7.0,8,1,98.76203536987305,394.6549892425537,1130,1
240,control,8.0,8,1,592.566967010498,592.5648212432861,1211,1
241,control,9.0,8,1,297.4047660827637,394.8850631713867,1485,1
242,control,10.0,8,1,97.88703918457031,1680.8948516845703,1287,1
243,control,11.0,8,0,1188.1000995635986,1188.09175491333,804,1
244,control,12.0,8,1,493.73793601989746,493.73698234558105,1033,1
245,control,13.0,18,1,493.5779571533203,493.5760498046875,934,1
246,control,14.0,11,1,594.3341255187988,594.3310260772705,860,1
247,control,15.0,8,1,495.3269958496094,495.32389640808105,1392,1
248,control,16.0,14,1,198.883056640625,592.8890705108643,1375,1
249,control,17.0,8,1,527.4841785430908,527.4832248687744,1312,1
250,control,18.0,11,1,498.08597564697266,498.08311462402344,881,1
251,control,19.0,15,1,526.9379615783691,526.9317626953125,1143,1
252,control,20.0,8,1,493.8240051269531,493.8209056854248,1461,1
253,control,21.0,8,1,99.15518760681152,1021.7242240905762,1220,1
254,control,22.0,8,1,692.6348209381104,692.6329135894775,1323,1
255,control,23.0,19,1,593.2998657226562,593.2941436767578,1448,1
256,control,24.0,8,1,594.4020748138428,594.397783279419,833,1
257,control,25.0,14,1,494.2772388458252,494.26889419555664,1088,1
258,control,26.0,8,1,822.9539394378662,822.9517936706543,818,1
259,control,27.0,8,1,1020.3437805175781,1020.3421115875244,1085,1
260,control,28.0,17,1,692.4469470977783,692.4417018890381,1103,1
261,control,29.0,14,0,496.26803398132324,496.2658882141113,923,1
262,control,30.0,17,1,692.2328472137451,692.2240257263184,1125,1
263,control,5.0,5,1,493.5770034790039,493.5731887817383,1180,1
264,control,6.0,5,1,594.0308570861816,594.0248966217041,829,1
265,control,7.0,5,1,96.74906730651855,493.18909645080566,1360,1
266,control,8.0,5,1,196.08712196350098,592.6723480224609,1232,1
267,control,9.0,5,1,98.82211685180664,592.9169654846191,1474,1
268,control,10.0,5,1,99.39098358154297,495.5739974975586,1180,1
269,control,11.0,11,1,99.94697570800781,494.60768699645996,1328,1
270,control,12.0,5,1,593.1210517883301,593.1200981140137,1114,1
271,control,13.0,18,1,97.20611572265625,493.4070110321045,1246,1
272,control,14.0,11,1,594.0420627593994,594.0370559692383,1207,1
273,control,15.0,5,0,792.017936706543,792.0138835906982,1085,1
274,control,16.0,12,1,690.2358531951904,690.2320384979248,1272,1
275,control,17.0,5,1,101.00698471069336,494.8458671569824,1358,1
276,control,18.0,11,1,493.31021308898926,493.30925941467285,1114,1
277,control,19.0,15,1,398.00095558166504,397.9980945587158,1383,1
278,control,20.0,5,1,692.6770210266113,692.6710605621338,1239,1
279,control,21.0,5,1,691.5268898010254,691.5209293365479,1153,1
280,control,22.0,5,0,823.5509395599365,823.5487937927246,1488,1
281,control,23.0,19,1,822.235107421875,822.2332000732422,860,1
282,control,24.0,5,0,724.2779731750488,724.276065826416,962,1
283,control,25.0,12,1,594.4571495056152,594.4540500640869,888,1
284,control,26.0,5,1,592.0319557189941,592.0302867889404,1354,1
285,control,27.0,5,1,691.2367343902588,691.2319660186768,1069,1
286,control,28.0,17,1,787.7628803253174,787.7597808837891,1221,1
287,control,29.0,15,1,724.4000434875488,724.3962287902832,1296,1
288,control,30.0,15,1,724.513053894043,724.510908126831,869,1
289,control,5.0,5,1,198.50897789001465,524.8780250549316,1099,1
290,control,6.0,5,1,198.20094108581543,592.8859710693359,950,1
291,control,7.0,5,1,131.87384605407715,526.3040065765381,1066,1
292,control,8.0,5,1,691.1098957061768,691.1060810089111,1422,1
293,control,9.0,5,1,98.82426261901855,494.37618255615234,1415,1
294,control,10.0,5,1,989.739179611206,989.7279739379883,1001,1
295,control,11.0,11,1,593.4898853302002,593.4882164001465,1226,1
296,control,12.0,5,0,890.3021812438965,890.3000354766846,829,1
297,control,13.0,17,1,1418.7688827514648,1418.7650680541992,1355,1
298,control,14.0,9,0,790.5709743499756,790.5688285827637,872,1
299,control,15.0,8,1,494.488000869751,494.48609352111816,1202,1
300,control,16.0,12,1,987.9040718078613,987.9019260406494,1247,1
301,control,17.0,5,0,197.1879005432129,592.0858383178711,1214,1
302,control,18.0,9,1,493.1650161743164,493.1597709655762,1308,1
303,control,19.0,14,1,593.0299758911133,593.0218696594238,1490,1
304,control,20.0,5,1,692.1799182891846,692.1758651733398,997,1
305,control,21.0,5,0,1021.3968753814697,1021.3949680328369,1086,1
306,control,22.0,8,0,691.417932510376,691.4169788360596,1238,1
307,control,23.0,18,1,592.7600860595703,592.7579402923584,1002,1
308,control,24.0,8,1,493.7717914581299,493.76678466796875,1238,1
309,control,25.0,12,1,590.069055557251,590.0659561157227,874,1
310,control,26.0,5,0,890.2580738067627,890.2552127838135,1085,1
311,control,27.0,5,1,889.0290260314941,889.0249729156494,1454,1
312,control,28.0,15,1,593.0271148681641,593.0190086364746,1423,1
313,control,29.0,15,1,691.709041595459,691.7040348052979,1235,1
314,control,30.0,15,1,624.1350173950195,624.1331100463867,1175,1
315,control,5.0,2,1,98.20222854614258,723.7660884857178,980,1
316,control,6.0,2,0,197.71814346313477,691.4539337158203,1304,1
317,control,7.0,2,1,691.0068988800049,690.9997463226318,1420,1
318,control,8.0,2,1,691.443920135498,691.4408206939697,945,1
319,control,9.0,2,0,396.41380310058594,890.0899887084961,1266,1
320,control,10.0,2,0,98.56581687927246,1020.8950042724609,1336,1
321,control,11.0,9,1,197.94487953186035,593.9059257507324,1179,1
322,control,12.0,8,1,103.38211059570312,597.1672534942627,1078,1
323,control,13.0,17,1,493.973970413208,493.9687252044678,1027,1
324,control,14.0,11,1,426.2540340423584,426.2521266937256,1395,1
325,control,15.0,8,1,624.8571872711182,624.8531341552734,1021,1
326,control,16.0,11,1,197.9529857635498,724.1339683532715,1102,1
327,control,17.0,8,1,792.9518222808838,792.9396629333496,1278,1
328,control,18.0,9,1,499.2330074310303,499.23133850097656,1442,1
329,control,19.0,14,1,694.6842670440674,694.6771144866943,981,1
330,control,20.0,2,0,889.8019790649414,889.7991180419922,946,1
331,control,21.0,8,1,597.8319644927979,597.8291034698486,829,1
332,control,22.0,11,1,491.30988121032715,491.304874420166,1031,1
333,control,23.0,18,1,493.1356906890869,493.1299686431885,1301,1
334,control,24.0,8,1,922.6250648498535,922.6231575012207,1032,1
335,control,25.0,11,1,592.6377773284912,592.6346778869629,857,1
336,control,26.0,8,1,496.25396728515625,496.25086784362793,821,1
337,control,27.0,2,0,1020.40696144104,1020.4048156738281,1350,1
338,control,28.0,15,1,691.7970180511475,691.7948722839355,1491,1
339,control,29.0,14,1,691.7083263397217,691.7040348052979,936,1
340,control,30.0,14,1,496.70982360839844,496.7072010040283,1233,1
341,control,5.0,2,1,726.1359691619873,726.1321544647217,856,1
342,control,6.0,5,1,199.0189552307129,725.1698970794678,889,1
343,control,7.0,2,1,99.8847484588623,725.2829074859619,1067,1
344,control,8.0,2,0,889.2929553985596,889.2860412597656,1120,1
345,control,9.0,5,1,198.49276542663574,692.5928592681885,901,1
346,control,10.0,5,1,195.58095932006836,592.6768779754639,941,1
347,control,11.0,9,1,493.01981925964355,493.0119514465332,803,1
348,control,12.0,8,1,692.3680305480957,692.363977432251,1281,1
349,control,13.0,15,1,493.1018352508545,493.09587478637695,1149,1
350,control,14.0,11,1,493.87526512145996,493.8642978668213,1193,1
351,control,15.0,6,1,690.5169486999512,690.5150413513184,1026,1
352,control,16.0,11,0,726.4120578765869,726.4101505279541,919,1
353,control,17.0,8,1,889.4901275634766,889.4891738891602,1437,1
354,control,18.0,8,1,691.277265548706,691.2751197814941,945,1
355,control,19.0,12,1,689.3303394317627,689.3281936645508,1046,1
356,control,20.0,5,1,723.8428592681885,723.8337993621826,1472,1
357,control,21.0,8,1,593.0588245391846,593.0538177490234,1251,1
358,control,22.0,11,1,592.9758548736572,592.972993850708,1399,1
359,control,23.0,17,1,625.5168914794922,625.5137920379639,1034,1
360,control,24.0,6,0,723.9291667938232,723.9270210266113,1186,1
361,control,25.0,11,1,493.1039810180664,493.1020736694336,1059,1
362,control,26.0,8,1,493.5417175292969,493.54004859924316,1241,1
363,control,27.0,5,0,691.8389797210693,691.8320655822754,1260,1
364,control,28.0,14,1,592.379093170166,592.3781394958496,1006,1
365,control,29.0,14,1,592.914342880249,592.9121971130371,1465,1
366,control,30.0,14,1,721.2839126586914,721.2808132171631,1352,1
367,control,5.0,1,0,99.79796409606934,1021.6000080108643,866,1
368,control,6.0,5,1,97.36084938049316,492.60497093200684,1042,1
369,control,7.0,1,0,1120.0120449066162,1120.0079917907715,834,1
370,control,8.0,5,1,592.8430557250977,592.8382873535156,1279,1
371,control,9.0,5,1,99.63679313659668,889.563798904419,875,1
372,control,10.0,5,1,792.0639514923096,792.0620441436768,1062,1
373,control,11.0,8,1,97.6266860961914,494.6317672729492,1258,1
374,control,12.0,6,1,494.1680431365967,494.16613578796387,842,1
375,control,13.0,15,1,394.49501037597656,394.49214935302734,1369,1
376,control,14.0,10,1,692.4741268157959,692.471981048584,1136,1
377,control,15.0,6,0,890.615701675415,890.6118869781494,1318,1
378,control,16.0,12,1,493.5920238494873,493.5898780822754,986,1
379,control,17.0,6,0,890.6240463256836,890.6221389770508,891,1
380,control,18.0,8,1,493.73483657836914,493.7279224395752,1203,1
381,control,19.0,12,1,593.1539535522461,593.1529998779297,1201,1
382,control,20.0,5,1,890.4728889465332,890.4671669006348,1305,1
383,control,21.0,6,1,526.1471271514893,526.1440277099609,1488,1
384,control,22.0,9,1,624.830961227417,624.8278617858887,803,1
385,control,23.0,17,1,525.7952213287354,525.7890224456787,1074,1
386,control,24.0,8,1,690.4542446136475,690.453290939331,1370,1
387,control,25.0,9,1,791.8732166290283,791.8710708618164,1440,1
388,control,26.0,6,1,890.5761241912842,890.571117401123,920,1
389,control,27.0,8,0,887.157678604126,887.1557712554932,858,1
390,control,28.0,14,1,494.37475204467773,494.3699836730957,1033,1
391,control,29.0,13,1,691.0240650177002,691.0200119018555,906,1
392,control,30.0,12,1,691.8692588806152,691.8680667877197,1145,1
1,quadbright,5.0,20,1,198.1790065765381,591.904878616333,1285,1
2,quadbright,6.0,20,1,198.4541416168213,593.9249992370605,1445,1
3,quadbright,7.0,20,1,97.66292572021484,394.8369026184082,1098,1
4,quadbright,8.0,20,1,100.00300407409668,396.6679573059082,1250,1
5,quadbright,9.0,20,1,493.0093288421631,493.0071830749512,1293,1
6,quadbright,10.0,20,1,494.17710304260254,494.171142578125,1093,1
7,quadbright,11.0,20,1,97.75280952453613,493.61586570739746,874,1
8,quadbright,12.0,20,1,591.684103012085,591.681957244873,1348,1
9,quadbright,13.0,20,1,193.84479522705078,491.75381660461426,1128,1
10,quadbright,14.0,20,1,493.78299713134766,493.77894401550293,1140,1
11,quadbright,15.0,20,1,592.850923538208,592.8447246551514,1008,1
12,quadbright,16.0,20,1,493.90482902526855,493.90292167663574,973,1
13,quadbright,17.0,20,1,425.66800117492676,425.66490173339844,857,1
14,quadbright,18.0,20,1,394.83189582824707,394.82998847961426,1259,1
15,quadbright,19.0,20,1,1285.8209609985352,1285.8178615570068,946,1
16,quadbright,20.0,20,1,592.44704246521,592.444896697998,1108,1
17,quadbright,21.0,20,1,394.6101665496826,394.60110664367676,1253,1
18,quadbright,22.0,20,1,494.17614936828613,494.1740036010742,1047,1
19,quadbright,23.0,20,1,493.4060573577881,493.4041500091553,1023,1
20,quadbright,24.0,20,1,1417.5899028778076,1417.5877571105957,1460,1
21,quadbright,25.0,20,1,692.4359798431396,692.429780960083,1237,1
22,quadbright,26.0,20,1,591.9947624206543,591.9888019561768,1302,1
23,quadbright,27.0,20,1,493.37124824523926,493.366003036499,1386,1
24,quadbright,28.0,20,1,593.1050777435303,593.0969715118408,1120,1
25,quadbright,29.0,20,1,691.6112899780273,691.6091442108154,992,1
26,quadbright,30.0,20,0,1092.1990871429443,1092.1969413757324,1107,1
27,quadbright,5.0,20,1,297.4729537963867,393.8450813293457,1348,1
28,quadbright,6.0,20,1,98.86598587036133,491.6210174560547,1207,1
29,quadbright,7.0,20,1,99.18904304504395,494.5940971374512,853,1
30,quadbright,8.0,20,1,591.771125793457,591.7680263519287,1320,1
31,quadbright,9.0,20,1,200.32906532287598,397.3870277404785,844,1
32,quadbright,10.0,20,1,1318.6497688293457,1318.6476230621338,1460,1
33,quadbright,11.0,20,1,395.2500820159912,395.2450752258301,1492,1
34,quadbright,12.0,20,1,1285.6061458587646,1285.60209274292,1055,1
35,quadbright,13.0,20,1,726.1130809783936,726.1052131652832,1155,1
36,quadbright,14.0,20,1,593.2109355926514,593.2040214538574,893,1
37,quadbright,15.0,20,1,594.2132472991943,594.2070484161377,976,1
38,quadbright,16.0,20,1,493.9291477203369,493.927001953125,1390,1
39,quadbright,17.0,20,1,593.9228534698486,593.9211845397949,1118,1
40,quadbright,18.0,20,1,593.6119556427002,593.6071872711182,1092,1
41,quadbright,19.0,20,1,493.8359260559082,493.82877349853516,849,1
42,quadbright,20.0,20,1,494.80390548706055,494.80199813842773,1370,1
43,quadbright,21.0,20,1,625.7340908050537,625.7297992706299,963,1
44,quadbright,22.0,20,1,889.3399238586426,889.3380165100098,1171,1
45,quadbright,23.0,20,1,593.6739444732666,593.6720371246338,938,1
46,quadbright,24.0,20,1,493.4961795806885,493.49403381347656,964,1
47,quadbright,25.0,20,1,725.4898548126221,725.4829406738281,1023,1
48,quadbright,26.0,20,1,493.99518966674805,493.9892292022705,1236,1
49,quadbright,27.0,20,1,592.5371646881104,592.5350189208984,864,1
50,quadbright,28.0,20,1,493.90530586242676,493.8969612121582,883,1
51,quadbright,29.0,20,1,492.3431873321533,492.3410415649414,1293,1
52,quadbright,30.0,23,1,395.04003524780273,395.0378894805908,1443,1
53,quadbright,5.0,17,1,98.07896614074707,395.22290229797363,1317,1
54,quadbright,6.0,17,1,494.4918155670166,494.4899082183838,1085,1
55,quadbright,7.0,17,1,495.1663017272949,495.1620101928711,1331,1
56,quadbright,8.0,17,1,98.33908081054688,1019.3312168121338,1487,1
57,quadbright,9.0,17,1,99.63274002075195,427.3409843444824,805,1
58,quadbright,10.0,17,1,526.8759727478027,526.8681049346924,887,1
59,quadbright,11.0,17,1,98.71697425842285,394.1190242767334,1112,1
60,quadbright,12.0,17,1,621.8249797821045,621.8140125274658,1272,1
61,quadbright,13.0,17,1,494.0950870513916,494.0929412841797,1291,1
62,quadbright,14.0,17,1,495.9378242492676,495.93496322631836,1351,1
63,quadbright,15.0,17,1,724.4479656219482,724.4460582733154,1090,1
64,quadbright,16.0,17,1,592.1370983123779,592.1339988708496,1285,1
65,quadbright,17.0,17,1,494.00997161865234,494.0049648284912,1489,1
66,quadbright,18.0,17,1,494.1868782043457,494.1821098327637,1328,1
67,quadbright,19.0,17,1,98.44517707824707,493.64686012268066,994,1
68,quadbright,20.0,17,1,593.9321517944336,593.9302444458008,1343,1
69,quadbright,21.0,17,1,594.5231914520264,594.5212841033936,1103,1
70,quadbright,22.0,17,1,198.19092750549316,593.6939716339111,1233,1
71,quadbright,23.0,17,1,593.9300060272217,593.9280986785889,875,1
72,quadbright,24.0,17,1,691.3537979125977,691.3490295410156,1463,1
73,quadbright,25.0,17,1,692.2259330749512,692.2228336334229,847,1
74,quadbright,26.0,17,1,692.8839683532715,692.8799152374268,1407,1
75,quadbright,27.0,17,1,492.6619529724121,492.6600456237793,847,1
76,quadbright,28.0,17,1,589.8411273956299,589.8392200469971,1317,1
77,quadbright,29.0,17,1,591.7952060699463,591.789960861206,1496,1
78,quadbright,30.0,23,1,493.9582347869873,493.9560890197754,882,1
79,quadbright,5.0,17,1,197.92509078979492,493.55006217956543,946,1
80,quadbright,6.0,17,1,99.69782829284668,1781.8207740783691,884,1
81,quadbright,7.0,17,1,394.69003677368164,394.6881294250488,919,1
82,quadbright,8.0,17,1,1286.689043045044,1286.6852283477783,1357,1
83,quadbright,9.0,17,1,494.9519634246826,494.94481086730957,882,1
84,quadbright,10.0,17,1,396.9988822937012,1219.1481590270996,900,1
85,quadbright,11.0,17,1,493.3819770812988,493.380069732666,1252,1
86,quadbright,12.0,17,1,692.8348541259766,692.8329467773438,982,1
87,quadbright,13.0,17,1,493.7269687652588,493.72291564941406,1446,1
88,quadbright,14.0,17,1,197.18408584594727,493.93701553344727,990,1
89,quadbright,15.0,17,1,98.05083274841309,493.4549331665039,1088,1
90,quadbright,16.0,17,1,492.95496940612793,492.9530620574951,1303,1
91,quadbright,17.0,17,1,593.8279628753662,593.825101852417,1266,1
92,quadbright,18.0,17,1,395.16520500183105,395.16329765319824,1167,1
93,quadbright,19.0,17,1,592.5157070159912,592.512845993042,1091,1
94,quadbright,20.0,17,1,626.7378330230713,626.7352104187012,917,1
95,quadbright,21.0,17,1,492.7501678466797,492.7480220794678,1116,1
96,quadbright,22.0,17,1,495.32580375671387,495.32079696655273,1190,1
97,quadbright,23.0,17,1,593.1539535522461,593.1520462036133,882,1
98,quadbright,24.0,17,1,494.3392276763916,494.3361282348633,1021,1
99,quadbright,25.0,17,1,1317.850112915039,1317.8460597991943,937,1
100,quadbright,26.0,17,1,494.07005310058594,494.0669536590576,1452,1
101,quadbright,27.0,17,1,494.3962097167969,494.39215660095215,1375,1
102,quadbright,28.0,17,1,492.83289909362793,492.825984954834,1150,1
103,quadbright,29.0,17,1,625.0300407409668,625.0240802764893,826,1
104,quadbright,30.0,20,1,526.9460678100586,526.9441604614258,998,1
105,quadbright,5.0,14,1,99.21789169311523,494.4307804107666,839,1
106,quadbright,6.0,14,1,230.41510581970215,724.2228984832764,837,1
107,quadbright,7.0,14,1,98.14906120300293,592.4279689788818,1222,1
108,quadbright,8.0,14,1,198.0581283569336,592.4510955810547,1377,1
109,quadbright,9.0,14,1,396.6817855834961,396.67296409606934,1255,1
110,quadbright,10.0,14,1,493.47400665283203,493.4689998626709,1237,1
111,quadbright,11.0,14,1,492.92588233947754,492.9227828979492,1440,1
112,quadbright,12.0,14,1,98.6480712890625,395.19476890563965,1453,1
113,quadbright,13.0,14,1,692.58713722229,692.5802230834961,1493,1
114,quadbright,14.0,14,1,97.7029800415039,790.9162044525146,913,1
115,quadbright,15.0,14,1,493.43323707580566,493.43109130859375,1099,1
116,quadbright,16.0,14,1,493.9751625061035,493.9720630645752,1092,1
117,quadbright,17.0,14,1,494.7500228881836,494.7478771209717,1004,1
118,quadbright,18.0,14,1,691.8008327484131,691.7989253997803,900,1
119,quadbright,19.0,14,1,593.1830406188965,593.1792259216309,1414,1
120,quadbright,20.0,14,1,493.2279586791992,493.2208061218262,823,1
121,quadbright,21.0,14,1,594.5825576782227,594.5737361907959,909,1
122,quadbright,22.0,14,1,593.559980392456,593.5518741607666,1351,1
123,quadbright,23.0,14,1,592.3078060150146,592.3027992248535,1444,1
124,quadbright,24.0,14,1,592.5681591033936,592.5612449645996,1083,1
125,quadbright,25.0,14,1,592.3199653625488,592.3161506652832,1094,1
126,quadbright,26.0,14,1,494.45199966430664,494.4500923156738,1142,1
127,quadbright,27.0,14,0,791.766881942749,791.762113571167,1400,1
128,quadbright,28.0,14,1,990.6907081604004,990.6888008117676,1106,1
129,quadbright,29.0,14,0,595.2479839324951,595.2451229095459,1001,1
130,quadbright,30.0,20,1,1086.9247913360596,1086.9178771972656,1197,1
131,quadbright,5.0,14,1,99.0760326385498,493.35408210754395,919,1
132,quadbright,6.0,14,1,232.2549819946289,625.8687973022461,1468,1
133,quadbright,7.0,14,1,200.09088516235352,591.372013092041,1496,1
134,quadbright,8.0,14,1,198.38190078735352,494.19617652893066,918,1
135,quadbright,9.0,14,1,99.39312934875488,494.47107315063477,1209,1
136,quadbright,10.0,14,1,1285.9561443328857,1285.952091217041,1023,1
137,quadbright,11.0,14,1,98.34980964660645,493.55602264404297,1084,1
138,quadbright,12.0,14,1,98.83594512939453,593.2350158691406,1087,1
139,quadbright,13.0,14,1,593.2660102844238,593.264102935791,1275,1
140,quadbright,14.0,14,1,493.99590492248535,493.99399757385254,1313,1
141,quadbright,15.0,14,1,493.33810806274414,493.3319091796875,1268,1
142,quadbright,16.0,14,1,723.1161594390869,723.114013671875,988,1
143,quadbright,17.0,14,1,493.20101737976074,493.19911003112793,921,1
144,quadbright,18.0,14,1,593.1591987609863,593.1572914123535,879,1
145,quadbright,19.0,14,1,592.8678512573242,592.8609371185303,1034,1
146,quadbright,20.0,14,1,593.2891368865967,593.2860374450684,933,1
147,quadbright,21.0,14,1,494.24004554748535,494.2309856414795,1156,1
148,quadbright,22.0,14,1,492.63715744018555,492.6321506500244,1041,1
149,quadbright,23.0,14,1,493.5617446899414,493.5588836669922,1087,1
150,quadbright,24.0,14,1,494.6162700653076,494.6103096008301,1016,1
151,quadbright,25.0,14,1,493.5040473937988,493.5019016265869,991,1
152,quadbright,26.0,14,1,593.0559635162354,593.0509567260742,801,1
153,quadbright,27.0,17,1,493.0377006530762,493.03388595581055,1218,1
154,quadbright,28.0,14,1,592.0088291168213,592.0071601867676,1483,1
155,quadbright,29.0,17,0,791.1622524261475,791.1601066589355,1063,1
156,quadbright,30.0,17,1,692.0046806335449,692.0018196105957,1280,1
157,quadbright,5.0,11,1,101.05204582214355,495.65720558166504,1446,1
158,quadbright,6.0,11,1,99.2588996887207,395.0049877166748,1100,1
159,quadbright,7.0,11,1,97.53799438476562,790.0557518005371,805,1
160,quadbright,8.0,11,1,493.1619167327881,493.15905570983887,1291,1
161,quadbright,9.0,11,1,591.0549163818359,591.0530090332031,942,1
162,quadbright,10.0,11,1,1287.3599529266357,1287.358283996582,1135,1
163,quadbright,11.0,11,1,98.04534912109375,492.7670955657959,1343,1
164,quadbright,12.0,11,1,99.03502464294434,494.17805671691895,1166,1
165,quadbright,13.0,11,1,494.0609931945801,494.05908584594727,821,1
166,quadbright,14.0,11,1,493.81399154663086,493.80993843078613,1112,1
167,quadbright,15.0,11,1,593.7709808349609,593.7659740447998,1495,1
168,quadbright,16.0,11,1,491.33968353271484,491.3358688354492,1394,1
169,quadbright,17.0,11,1,726.5779972076416,726.5689373016357,1275,1
170,quadbright,18.0,11,1,593.1479930877686,593.1460857391357,1154,1
171,quadbright,19.0,11,1,496.8409538269043,496.837854385376,1203,1
172,quadbright,20.0,11,1,692.3010349273682,692.2950744628906,852,1
173,quadbright,21.0,11,1,593.0702686309814,593.0633544921875,1305,1
174,quadbright,22.0,11,1,492.8760528564453,492.86913871765137,1348,1
175,quadbright,23.0,11,1,591.9618606567383,591.95876121521,1177,1
176,quadbright,24.0,11,1,492.8860664367676,492.88296699523926,1410,1
177,quadbright,25.0,11,1,920.8590984344482,920.8540916442871,1468,1
178,quadbright,26.0,11,0,1088.5379314422607,1088.5319709777832,1053,1
179,quadbright,27.0,17,1,820.3740119934082,820.3709125518799,936,1
180,quadbright,28.0,11,0,591.926097869873,591.9239521026611,1335,1
181,quadbright,29.0,20,1,689.0571117401123,689.049243927002,1390,1
182,quadbright,30.0,17,1,692.6178932189941,692.6169395446777,1441,1
183,quadbright,5.0,11,1,198.49920272827148,592.6260948181152,1252,1
184,quadbright,6.0,11,1,197.55887985229492,494.5719242095947,1274,1
185,quadbright,7.0,11,1,99.08294677734375,1286.7918014526367,974,1
186,quadbright,8.0,11,1,594.2542552947998,594.2502021789551,1048,1
187,quadbright,9.0,11,1,593.390941619873,593.3880805969238,818,1
188,quadbright,10.0,11,1,99.94721412658691,493.725061416626,1149,1
189,quadbright,11.0,11,1,593.5680866241455,593.5649871826172,1124,1
190,quadbright,12.0,11,1,494.3349361419678,494.32897567749023,1270,1
191,quadbright,13.0,11,1,594.7210788726807,594.7129726409912,1067,1
192,quadbright,14.0,11,1,590.1246070861816,590.1226997375488,961,1
193,quadbright,15.0,11,1,493.29519271850586,493.29113960266113,1301,1
194,quadbright,16.0,11,1,492.4757480621338,492.47169494628906,1099,1
195,quadbright,17.0,11,1,592.6299095153809,592.6268100738525,1284,1
196,quadbright,18.0,11,1,1087.805986404419,1087.8031253814697,897,1
197,quadbright,19.0,11,1,496.3359832763672,496.33193016052246,1070,1
198,quadbright,20.0,11,1,723.3889102935791,723.3841419219971,1088,1
199,quadbright,21.0,11,1,625.2889633178711,625.2849102020264,961,1
200,quadbright,22.0,11,0,920.5760955810547,920.5753803253174,976,1
201,quadbright,23.0,11,1,725.0232696533203,725.0211238861084,888,1
202,quadbright,24.0,11,1,197.33309745788574,889.2261981964111,985,0
203,quadbright,24.0,11,1,198.4119415283203,691.9980049133301,1129,1
204,quadbright,25.0,11,1,1025.0189304351807,1025.0160694122314,828,1
205,quadbright,26.0,14,1,494.5108890533447,494.5058822631836,1261,1
206,quadbright,27.0,15,1,691.6170120239258,691.6139125823975,1246,1
207,quadbright,28.0,14,1,198.45819473266602,889.9168968200684,870,1
208,quadbright,29.0,20,1,593.3289527893066,593.3239459991455,1491,1
209,quadbright,30.0,14,0,1021.5110778808594,1021.5048789978027,1338,1
210,quadbright,5.0,8,1,198.6711025238037,691.8661594390869,923,1
211,quadbright,6.0,8,1,98.40202331542969,494.54307556152344,1288,1
212,quadbright,7.0,8,1,494.2467212677002,494.2448139190674,1248,1
213,quadbright,8.0,8,1,822.8428363800049,822.8402137756348,1100,1
214,quadbright,9.0,8,1,196.5329647064209,593.1990146636963,806,1
215,quadbright,10.0,8,1,100.96526145935059,495.1450824737549,1065,1
216,quadbright,11.0,8,0,591.663122177124,591.6609764099121,836,1
217,quadbright,12.0,8,1,526.1571407318115,526.1540412902832,812,1
218,quadbright,13.0,8,1,198.7757682800293,593.2087898254395,1341,1
219,quadbright,14.0,8,1,493.6709403991699,493.6668872833252,1425,1
220,quadbright,15.0,8,0,98.25825691223145,592.1573638916016,1013,1
221,quadbright,16.0,8,1,791.5959358215332,791.5940284729004,886,1
222,quadbright,17.0,8,0,593.4238433837891,593.4197902679443,1238,1
223,quadbright,18.0,8,1,922.752857208252,922.7511882781982,812,1
224,quadbright,19.0,8,1,624.1090297698975,624.1030693054199,1108,1
225,quadbright,20.0,8,1,791.193962097168,791.1841869354248,1215,1
226,quadbright,21.0,8,1,1088.6809825897217,1088.677167892456,869,1
227,quadbright,22.0,14,1,493.46089363098145,493.4577941894531,1339,1
228,quadbright,23.0,8,0,890.031099319458,890.0279998779297,1237,1
229,quadbright,24.0,8,1,1021.0950374603271,1021.0950374603271,993,1
230,quadbright,25.0,8,0,624.9830722808838,624.9780654907227,1009,1
231,quadbright,26.0,14,1,693.8371658325195,693.835973739624,1450,1
232,quadbright,27.0,15,1,494.21095848083496,494.2059516906738,1393,1
233,quadbright,28.0,14,1,624.3610382080078,624.359130859375,1152,1
234,quadbright,29.0,18,1,692.0590400695801,692.0568943023682,1291,1
235,quadbright,30.0,17,1,890.7208442687988,890.7167911529541,1115,1
236,quadbright,5.0,8,1,99.05099868774414,592.674732208252,1228,1
237,quadbright,6.0,8,1,791.3720607757568,791.3651466369629,896,1
238,quadbright,7.0,8,1,98.23894500732422,591.3910865783691,1057,1
239,quadbright,8.0,8,1,492.8469657897949,492.8410053253174,1076,1
240,quadbright,9.0,8,1,99.15494918823242,592.843770980835,1244,1
241,quadbright,10.0,8,1,591.9630527496338,591.961145401001,972,1
242,quadbright,11.0,11,1,493.602991104126,493.59822273254395,963,1
243,quadbright,12.0,8,1,494.39096450805664,494.3890571594238,1000,1
244,quadbright,13.0,8,1,593.1310653686523,593.1282043457031,864,1
245,quadbright,14.0,8,1,493.588924407959,493.5870170593262,1403,1
246,quadbright,15.0,11,1,100.17991065979004,493.89100074768066,1374,1
247,quadbright,16.0,8,1,724.8189449310303,724.815845489502,1249,1
248,quadbright,17.0,11,1,724.3027687072754,724.3008613586426,1178,1
249,quadbright,18.0,8,1,722.5253582000732,722.5232124328613,1323,1
250,quadbright,19.0,8,1,691.9727325439453,691.9667720794678,1057,1
251,quadbright,20.0,8,0,889.8749351501465,889.8718357086182,1157,1
252,quadbright,21.0,8,1,890.423059463501,890.4168605804443,1191,1
253,quadbright,22.0,14,1,625.6461143493652,625.6420612335205,1368,1
254,quadbright,23.0,11,1,591.4590358734131,591.4561748504639,917,1
255,quadbright,24.0,8,1,692.4881935119629,692.4819946289062,1181,1
256,quadbright,25.0,11,1,491.73712730407715,491.7309284210205,985,1
257,quadbright,26.0,12,1,790.3869152069092,790.3821468353271,1158,1
258,quadbright,27.0,14,1,493.81494522094727,493.8046932220459,921,1
259,quadbright,28.0,12,1,891.1712169647217,891.1621570587158,1163,1
260,quadbright,29.0,18,1,691.5521621704102,691.547155380249,998,1
261,quadbright,30.0,17,1,790.6250953674316,790.6210422515869,1083,1
262,quadbright,5.0,5,1,199.80788230895996,527.5869369506836,1164,1
263,quadbright,6.0,5,1,198.76503944396973,824.0740299224854,1106,1
264,quadbright,7.0,5,0,97.84793853759766,920.9740161895752,1302,1
265,quadbright,8.0,5,0,1021.9502449035645,1021.9480991363525,848,1
266,quadbright,9.0,5,1,99.00021553039551,592.9911136627197,1433,1
267,quadbright,10.0,5,1,891.7639255523682,891.7617797851562,1153,1
268,quadbright,11.0,11,1,198.46391677856445,691.9729709625244,815,1
269,quadbright,12.0,5,0,98.9999771118164,591.3238525390625,1026,1
270,quadbright,13.0,5,1,888.984203338623,888.9780044555664,1464,1
271,quadbright,14.0,5,0,790.4138565063477,790.4088497161865,919,1
272,quadbright,15.0,11,1,493.40224266052246,493.3972358703613,1052,1
273,quadbright,16.0,5,0,791.0490036010742,791.0473346710205,1374,1
274,quadbright,17.0,11,1,593.2228565216064,593.2209491729736,1251,1
275,quadbright,18.0,5,0,790.3852462768555,790.3831005096436,1028,1
276,quadbright,19.0,5,1,493.65997314453125,493.6559200286865,1484,1
277,quadbright,20.0,11,1,492.27285385131836,492.27118492126465,1484,1
278,quadbright,21.0,5,0,889.6970748901367,889.6880149841309,976,1
279,quadbright,22.0,12,0,791.0890579223633,791.0819053649902,1228,1
280,quadbright,23.0,11,1,724.4150638580322,724.4069576263428,1200,1
281,quadbright,24.0,5,1,791.7740345001221,791.7649745941162,1455,1
282,quadbright,25.0,11,0,691.6630268096924,691.6599273681641,1188,1
283,quadbright,26.0,12,1,493.65806579589844,493.6540126800537,917,1
284,quadbright,27.0,14,1,692.9130554199219,692.91090965271,1264,1
285,quadbright,28.0,12,0,724.0760326385498,724.0707874298096,1389,1
286,quadbright,29.0,17,1,922.5091934204102,922.5060939788818,1437,1
287,quadbright,30.0,15,1,493.8778877258301,493.8669204711914,1324,1
288,quadbright,5.0,5,1,98.33192825317383,823.328971862793,1462,1
289,quadbright,6.0,5,1,693.289041519165,693.281888961792,1433,1
290,quadbright,7.0,8,1,98.93918037414551,889.7252082824707,1391,1
291,quadbright,8.0,8,1,99.03788566589355,593.6198234558105,869,1
292,quadbright,9.0,5,1,591.8829441070557,591.8769836425781,1500,1
293,quadbright,10.0,5,0,592.2179222106934,592.2107696533203,835,1
294,quadbright,11.0,9,1,98.34599494934082,691.2178993225098,1374,1
295,quadbright,12.0,8,1,98.7081527709961,625.0813007354736,1141,1
296,quadbright,13.0,5,0,821.4199542999268,821.4190006256104,884,1
297,quadbright,14.0,8,1,922.8627681732178,922.8610992431641,999,1
298,quadbright,15.0,9,1,890.9041881561279,890.8989429473877,854,1
299,quadbright,16.0,8,1,889.5878791809082,889.5809650421143,1259,1
300,quadbright,17.0,9,1,494.17996406555176,494.1680431365967,1088,1
301,quadbright,18.0,8,1,696.7012882232666,696.6969966888428,801,1
302,quadbright,19.0,5,0,624.8269081115723,624.824047088623,1048,1
303,quadbright,20.0,11,1,890.0959491729736,890.0940418243408,849,1
304,quadbright,21.0,8,1,690.6359195709229,690.6290054321289,1131,1
305,quadbright,22.0,14,1,890.3510570526123,890.3470039367676,886,1
306,quadbright,23.0,9,1,625.0486373901367,625.0429153442383,1035,1
307,quadbright,24.0,5,1,790.942907333374,790.9409999847412,1376,1
308,quadbright,25.0,12,1,491.88995361328125,491.88828468322754,1227,1
309,quadbright,26.0,11,1,893.2490348815918,893.247127532959,842,1
310,quadbright,27.0,12,0,692.2740936279297,692.2719478607178,1036,1
311,quadbright,28.0,14,1,692.8079128265381,692.8050518035889,911,1
312,quadbright,29.0,17,1,493.24703216552734,493.23296546936035,1296,1
313,quadbright,30.0,15,1,493.9560890197754,493.9541816711426,1160,1
314,quadbright,5.0,2,1,98.33693504333496,592.5328731536865,1113,1
315,quadbright,6.0,2,0,98.6170768737793,1515.2690410614014,1494,1
316,quadbright,7.0,8,1,494.97079849243164,494.9688911437988,1411,1
317,quadbright,8.0,8,1,100.3110408782959,494.2972660064697,1474,1
318,quadbright,9.0,2,1,691.8041706085205,691.802978515625,1300,1
319,quadbright,10.0,8,1,493.98183822631836,493.9770698547363,1159,1
320,quadbright,11.0,9,1,1118.9019680023193,1118.9000606536865,1370,1
321,quadbright,12.0,8,1,524.8582363128662,524.8501300811768,1395,1
322,quadbright,13.0,8,1,888.329029083252,888.3271217346191,1103,1
323,quadbright,14.0,8,1,593.7769412994385,593.7747955322266,1477,1
324,quadbright,15.0,9,1,495.45907974243164,495.4547882080078,920,1
325,quadbright,16.0,8,0,691.8649673461914,691.8630599975586,1433,1
326,quadbright,17.0,9,1,889.0712261199951,889.0681266784668,870,1
327,quadbright,18.0,8,0,823.0769634246826,823.0729103088379,1303,1
328,quadbright,19.0,8,0,696.1767673492432,696.173906326294,1154,1
329,quadbright,20.0,9,1,592.6191806793213,592.6122665405273,1179,1
330,quadbright,21.0,8,0,790.8799648284912,790.8759117126465,1064,1
331,quadbright,22.0,14,1,594.7980880737305,594.7949886322021,1470,1
332,quadbright,23.0,9,1,625.4110336303711,625.4088878631592,1496,1
333,quadbright,24.0,2,0,822.2560882568359,822.2510814666748,927,1
334,quadbright,25.0,12,1,492.78998374938965,492.7868843078613,1448,1
335,quadbright,26.0,11,0,592.3619270324707,592.360258102417,1462,1
336,quadbright,27.0,14,1,492.85101890563965,492.84911155700684,945,1
337,quadbright,28.0,14,0,493.5181140899658,493.5159683227539,1284,1
338,quadbright,29.0,15,1,691.2221908569336,691.2200450897217,1332,1
339,quadbright,30.0,14,1,691.3869380950928,691.3821697235107,951,1
340,quadbright,5.0,2,0,198.26626777648926,691.3611888885498,1274,1
341,quadbright,6.0,5,1,98.49715232849121,492.9180145263672,1127,1
342,quadbright,7.0,6,1,199.66483116149902,791.6250228881836,1334,1
343,quadbright,8.0,6,1,691.3051605224609,691.303014755249,851,1
344,quadbright,9.0,2,1,791.9778823852539,791.9750213623047,1113,1
345,quadbright,10.0,8,1,494.17614936828613,494.1718578338623,1142,1
346,quadbright,11.0,8,1,197.82495498657227,593.4867858886719,1097,1
347,quadbright,12.0,6,0,989.098072052002,989.0902042388916,973,1
348,quadbright,13.0,8,0,889.0857696533203,889.0838623046875,1111,1
349,quadbright,14.0,6,0,790.3852462768555,790.3769016265869,1185,1
350,quadbright,15.0,8,1,691.8668746948242,691.8630599975586,876,1
351,quadbright,16.0,9,1,594.2840576171875,594.2721366882324,1455,1
352,quadbright,17.0,8,1,595.3772068023682,595.3731536865234,928,1
353,quadbright,18.0,9,0,890.2590274810791,890.2549743652344,1164,1
354,quadbright,19.0,11,1,99.45201873779297,894.2089080810547,927,1
355,quadbright,20.0,9,1,789.649248123169,789.647102355957,1036,1
356,quadbright,21.0,9,1,96.57096862792969,790.5361652374268,936,1
357,quadbright,22.0,13,1,493.8499927520752,493.84498596191406,1228,1
358,quadbright,23.0,8,1,526.6129970550537,526.6098976135254,1144,1
359,quadbright,24.0,5,0,791.3968563079834,791.3939952850342,964,1
360,quadbright,25.0,11,1,493.6959743499756,493.6938285827637,1438,1
361,quadbright,26.0,12,1,494.4157600402832,494.4140911102295,1038,1
362,quadbright,27.0,14,0,690.8862590789795,690.8810138702393,1450,1
363,quadbright,28.0,15,1,592.4439430236816,592.437744140625,1364,1
364,quadbright,29.0,15,0,592.3647880554199,592.3619270324707,912,1
365,quadbright,30.0,14,1,892.67897605896,892.6770687103271,1188,1
366,quadbright,5.0,5,1,99.03120994567871,395.02906799316406,1232,1
367,quadbright,6.0,5,1,98.24204444885254,525.8731842041016,1362,1
368,quadbright,7.0,6,1,98.02889823913574,526.0908603668213,994,1
369,quadbright,8.0,6,1,623.809814453125,623.8048076629639,1410,1
370,quadbright,9.0,1,0,198.59027862548828,790.8310890197754,1338,1
371,quadbright,10.0,6,1,793.0071353912354,792.999267578125,986,1
372,quadbright,11.0,8,1,495.1040744781494,495.09596824645996,1353,1
373,quadbright,12.0,8,1,495.042085647583,495.0399398803711,944,1
374,quadbright,13.0,9,1,395.2820301055908,395.280122756958,1291,1
375,quadbright,14.0,8,0,197.69597053527832,889.8987770080566,1411,1
376,quadbright,15.0,8,1,298.0480194091797,692.8257942199707,1390,1
377,quadbright,16.0,9,0,197.96514511108398,990.4181957244873,810,1
378,quadbright,17.0,8,1,692.4128532409668,692.410945892334,931,1
379,quadbright,18.0,11,1,427.9608726501465,823.6160278320312,1477,1
380,quadbright,19.0,11,1,692.4340724945068,692.4328804016113,1147,1
381,quadbright,20.0,8,0,723.8059043884277,723.8037586212158,1164,1
382,quadbright,21.0,9,1,722.9907512664795,722.9838371276855,1170,1
383,quadbright,22.0,13,1,625.1590251922607,625.1559257507324,1018,1
384,quadbright,23.0,8,0,691.8878555297852,691.8818950653076,1272,1
385,quadbright,24.0,8,0,593.8248634338379,593.8231945037842,828,0
386,quadbright,24.0,8,0,922.7418899536133,922.7368831634521,1465,0
387,quadbright,24.0,8,0,789.6771430969238,789.6761894226074,1005,1
388,quadbright,25.0,11,1,493.0400848388672,493.0391311645508,960,1
389,quadbright,26.0,12,1,594.214916229248,594.210147857666,1160,1
390,quadbright,27.0,15,1,592.6556587219238,592.6527976989746,1120,1
391,quadbright,28.0,15,1,328.34386825561523,328.3429145812988,1327,1
392,quadbright,29.0,17,1,724.6279716491699,724.6189117431641,1215,1
393,quadbright,30.0,12,1,328.37986946105957,328.37772369384766,1340,1
