trial,condition,eccentricity,magnitude,correct,srt_ms,keyboard_rt_ms,pre_change_ms,valid
1,control,5.0,20,1,96.84491157531738,1024.4979858398438,1465,1
2,control,6.0,20,1,197.84092903137207,791.6491031646729,1431,1
3,control,7.0,20,1,639.2362117767334,639.2331123352051,1357,1
4,control,8.0,20,1,97.70321846008301,722.1312522888184,858,1
5,control,9.0,20,1,130.93900680541992,912.2838973999023,1319,1
6,control,10.0,20,1,790.3258800506592,790.3189659118652,1266,1
7,control,11.0,20,1,723.9911556243896,723.9851951599121,846,1
8,control,12.0,20,1,921.4730262756348,921.4699268341064,1483,1
9,control,13.0,20,1,801.5611171722412,801.5580177307129,1204,1
10,control,14.0,20,1,791.1021709442139,791.0921573638916,1109,1
11,control,15.0,20,1,792.3331260681152,792.3290729522705,1022,1
12,control,16.0,20,1,791.1710739135742,791.1667823791504,1024,1
13,control,17.0,20,1,792.2148704528809,792.2139167785645,1104,1
14,control,18.0,20,1,625.1199245452881,625.112771987915,1268,1
15,control,19.0,20,1,723.6518859863281,723.6480712890625,1350,1
16,control,20.0,20,1,614.2849922180176,614.2838001251221,859,1
17,control,21.0,20,1,801.4440536499023,801.4400005340576,1410,1
18,control,22.0,20,1,791.1999225616455,791.1972999572754,1065,1
19,control,23.0,20,1,799.4670867919922,799.462080001831,1033,1
20,control,24.0,20,1,595.3030586242676,595.3021049499512,1415,1
21,control,25.0,20,1,791.4149761199951,791.4128303527832,1016,1
22,control,26.0,20,1,596.2388515472412,596.2371826171875,1449,1
23,control,27.0,20,1,601.8412113189697,601.8390655517578,1426,1
24,control,28.0,20,1,792.2637462615967,792.2611236572266,1024,1
25,control,29.0,20,1,790.0650501251221,790.057897567749,1181,1
26,control,30.0,20,1,733.4110736846924,733.4070205688477,1236,1
27,control,5.0,20,1,197.61991500854492,791.3699150085449,1207,1
28,control,6.0,20,1,198.05526733398438,603.2209396362305,1301,1
29,control,7.0,20,1,790.01784324646,790.0159358978271,1126,1
30,control,8.0,20,1,198.35209846496582,593.1341648101807,1065,1
31,control,9.0,20,1,593.8591957092285,593.8551425933838,1373,1
32,control,10.0,20,1,735.2390289306641,735.2290153503418,861,1
33,control,11.0,20,1,790.8868789672852,790.8768653869629,1408,1
34,control,12.0,20,1,603.6391258239746,603.635311126709,1338,1
35,control,13.0,20,1,791.1350727081299,791.1322116851807,1219,1
36,control,14.0,20,1,593.8098430633545,593.8067436218262,1493,1
37,control,15.0,20,0,1024.8520374298096,1024.8498916625977,963,1
38,control,16.0,20,1,791.3627624511719,791.3601398468018,1068,1
39,control,17.0,20,1,592.4112796783447,592.4081802368164,1022,1
40,control,18.0,20,1,592.6520824432373,592.6480293273926,1470,1
41,control,19.0,20,1,791.0277843475342,791.0261154174805,1279,1
42,control,20.0,20,1,604.2239665985107,604.2208671569824,1371,1
43,control,21.0,20,1,623.8579750061035,623.8551139831543,1353,1
44,control,22.0,20,1,627.0341873168945,627.032995223999,1039,1
45,control,23.0,20,1,790.8539772033691,790.8508777618408,1323,1
46,control,24.0,20,1,791.9790744781494,791.964054107666,1076,1
47,control,25.0,20,1,635.3390216827393,635.3302001953125,1364,1
48,control,26.0,20,1,791.5897369384766,791.5868759155273,1202,1
49,control,27.0,20,1,723.8178253173828,723.8039970397949,802,1
50,control,28.0,20,1,592.562198638916,592.5600528717041,868,1
51,control,29.0,20,1,592.4620628356934,592.458963394165,1449,1
52,control,30.0,20,1,691.1611557006836,691.1571025848389,1059,1
53,control,5.0,17,1,99.31683540344238,922.6839542388916,1254,1
54,control,6.0,17,1,197.93272018432617,802.156925201416,966,1
55,control,7.0,17,1,199.3851661682129,625.6310939788818,1387,1
56,control,8.0,17,1,582.8690528869629,582.8680992126465,1423,1
57,control,9.0,17,1,802.5281429290771,802.5243282318115,831,1
58,control,10.0,17,1,693.7100887298584,693.702220916748,886,1
59,control,11.0,17,1,527.475118637085,527.4739265441895,1399,1
60,control,12.0,17,1,593.2927131652832,593.2879447937012,1021,1
61,control,13.0,17,1,594.9130058288574,594.9051380157471,1469,1
62,control,14.0,17,1,780.6730270385742,780.6720733642578,1403,1
63,control,15.0,23,1,790.3449535369873,790.3401851654053,1091,1
64,control,16.0,17,1,592.8299427032471,592.8280353546143,1283,1
65,control,17.0,17,1,593.2040214538574,593.1987762451172,1476,1
66,control,18.0,17,1,594.1050052642822,594.1009521484375,1204,1
67,control,19.0,17,1,592.8776264190674,592.8728580474854,1451,1
68,control,20.0,17,1,922.4319458007812,922.4281311035156,850,1
69,control,21.0,17,1,592.818021774292,592.8041934967041,1366,1
70,control,22.0,17,1,592.7069187164307,592.7009582519531,906,1
71,control,23.0,17,1,791.7938232421875,791.7919158935547,1114,1
72,control,24.0,17,1,790.5380725860596,790.5311584472656,1278,1
73,control,25.0,17,1,602.9977798461914,602.9939651489258,980,1
74,control,26.0,17,1,536.1719131469727,536.1688137054443,1442,1
75,control,27.0,17,1,593.4250354766846,593.4228897094727,1204,1
76,control,28.0,17,1,596.6227054595947,596.6217517852783,971,1
77,control,29.0,17,1,790.9319400787354,790.9290790557861,1146,1
78,control,30.0,17,1,802.361011505127,802.3550510406494,1202,1
79,control,5.0,17,1,197.94178009033203,593.4767723083496,867,1
80,control,6.0,17,1,197.7710723876953,592.9360389709473,979,1
81,control,7.0,17,1,197.39508628845215,592.8151607513428,838,1
82,control,8.0,17,1,593.6288833618164,593.621015548706,1045,1
83,control,9.0,17,1,624.887228012085,624.8819828033447,1023,1
84,control,10.0,17,1,635.8809471130371,635.8778476715088,838,1
85,control,11.0,17,1,595.4313278198242,595.4301357269287,1229,1
86,control,12.0,17,1,790.4119491577148,790.4069423675537,1368,1
87,control,13.0,17,1,591.9477939605713,591.9449329376221,1161,1
88,control,14.0,17,1,487.8242015838623,487.8242015838623,918,1
89,control,15.0,23,1,630.3818225860596,630.3806304931641,1107,1
90,control,16.0,17,1,524.82008934021,524.8150825500488,1118,1
91,control,17.0,17,1,593.275785446167,593.271017074585,1054,1
92,control,18.0,17,1,592.6840305328369,592.6821231842041,860,1
93,control,19.0,17,1,592.8008556365967,592.7958488464355,1483,1
94,control,20.0,17,1,593.0929183959961,593.0860042572021,868,1
95,control,21.0,17,1,592.5910472869873,592.5869941711426,1128,1
96,control,22.0,17,1,602.8730869293213,602.869987487793,1156,1
97,control,23.0,17,1,592.9698944091797,592.9641723632812,1044,1
98,control,24.0,17,1,624.413013458252,624.4089603424072,989,1
99,control,25.0,17,1,825.7980346679688,825.7930278778076,1136,1
100,control,26.0,17,1,592.6637649536133,592.6609039306641,1242,1
101,control,27.0,17,1,594.1059589385986,594.1030979156494,1323,1
102,control,28.0,17,1,592.583179473877,592.5788879394531,1009,1
103,control,29.0,17,1,594.398021697998,594.3973064422607,1047,1
104,control,30.0,17,1,922.2898483276367,922.285795211792,1303,1
105,control,5.0,14,1,592.815637588501,592.8118228912354,807,1
106,control,6.0,14,1,197.9379653930664,593.4181213378906,1334,1
107,control,7.0,14,1,592.9849147796631,592.9811000823975,1432,1
108,control,8.0,14,1,592.5171375274658,592.5140380859375,1099,1
109,control,9.0,14,0,97.83792495727539,2009.2709064483643,889,0
110,control,9.0,14,1,198.09508323669434,593.3480262756348,1159,1
111,control,10.0,14,1,592.9620265960693,592.958927154541,897,1
112,control,11.0,14,1,791.064977645874,791.0599708557129,1085,1
113,control,12.0,14,1,625.0782012939453,625.0612735748291,1051,1
114,control,13.0,14,1,603.4417152404785,603.4388542175293,1359,1
115,control,14.0,14,1,603.734016418457,603.7309169769287,1019,1
116,control,15.0,21,1,592.9162502288818,592.9110050201416,1389,1
117,control,16.0,14,1,602.3781299591064,602.370023727417,962,1
118,control,17.0,14,1,596.0850715637207,596.0819721221924,886,0
119,control,17.0,14,1,604.1731834411621,604.1700839996338,1061,0
120,control,17.0,14,1,592.4148559570312,592.4098491668701,897,1
121,control,18.0,14,1,592.5140380859375,592.5109386444092,952,1
122,control,19.0,14,1,592.9553508758545,592.9532051086426,1150,1
123,control,20.0,14,1,594.5470333099365,594.5448875427246,1082,1
124,control,21.0,14,1,622.3747730255127,622.3709583282471,1350,1
125,control,22.0,14,1,603.4529209136963,603.449821472168,1242,1
126,control,23.0,14,1,596.2109565734863,596.2090492248535,1316,1
127,control,24.0,14,1,592.8220748901367,592.8182601928711,1128,1
128,control,25.0,14,1,581.58278465271,581.5818309783936,879,1
129,control,26.0,14,1,592.6768779754639,592.6730632781982,1354,1
130,control,27.0,14,1,592.9811000823975,592.9780006408691,964,1
131,control,28.0,14,1,593.4770107269287,593.4710502624512,1487,1
132,control,29.0,14,1,625.6020069122314,625.5989074707031,1222,1
133,control,30.0,14,1,593.0051803588867,593.0001735687256,1332,1
134,control,5.0,14,1,594.0580368041992,594.0561294555664,918,1
135,control,6.0,14,1,197.71385192871094,592.4060344696045,839,1
136,control,7.0,14,1,129.80389595031738,524.5568752288818,1248,1
137,control,8.0,14,1,197.97110557556152,593.9838886260986,1243,1
138,control,9.0,14,1,592.5948619842529,592.5917625427246,1214,1
139,control,10.0,14,1,230.15093803405762,428.2698631286621,1432,1
140,control,11.0,14,1,603.1780242919922,603.1718254089355,1435,1
141,control,12.0,14,1,592.6640033721924,592.6580429077148,1060,1
142,control,13.0,14,1,583.2090377807617,583.2080841064453,917,1
143,control,14.0,14,1,603.8579940795898,603.8510799407959,834,1
144,control,15.0,21,1,581.8502902984619,581.8490982055664,881,1
145,control,16.0,14,1,592.5140380859375,592.5068855285645,1194,1
146,control,17.0,14,1,434.6628189086914,434.6599578857422,1218,1
147,control,18.0,14,1,515.7849788665771,515.7828330993652,1254,1
148,control,19.0,14,1,603.4500598907471,603.4460067749023,1140,1
149,control,20.0,14,1,592.1740531921387,592.1719074249268,1181,1
150,control,21.0,14,1,525.510311126709,525.5081653594971,1425,1
151,control,22.0,14,1,593.876838684082,593.8758850097656,818,1
152,control,23.0,14,1,703.5229206085205,703.5171985626221,1314,1
153,control,24.0,14,1,590.4688835144043,590.4679298400879,973,1
154,control,25.0,14,1,592.7407741546631,592.7350521087646,1421,1
155,control,26.0,14,1,593.5349464416504,593.5282707214355,1442,1
156,control,27.0,14,1,617.2089576721191,617.2070503234863,1320,1
157,control,28.0,14,1,524.359941482544,524.3558883666992,847,1
158,control,29.0,14,1,592.8220748901367,592.8170680999756,1479,1
159,control,30.0,14,1,526.9107818603516,526.9107818603516,1484,1
160,control,5.0,11,1,198.8852024078369,593.541145324707,1086,1
161,control,6.0,11,1,197.25298881530762,593.0609703063965,1085,1
162,control,7.0,11,1,198.2111930847168,593.0871963500977,1480,1
163,control,8.0,11,1,207.83114433288574,603.0950546264648,1202,1
164,control,9.0,11,1,198.17805290222168,593.193769454956,1313,1
165,control,10.0,11,1,594.3379402160645,594.336986541748,1398,1
166,control,11.0,11,1,594.4666862487793,594.4619178771973,1192,1
167,control,12.0,11,1,593.2607650756836,593.2588577270508,1124,1
168,control,13.0,11,1,635.0741386413574,635.0698471069336,1210,1
169,control,14.0,11,1,593.8050746917725,593.8031673431396,1248,1
170,control,15.0,20,1,603.5568714141846,603.5521030426025,956,1
171,control,16.0,11,1,597.5470542907715,597.5461006164551,1348,1
172,control,17.0,11,1,494.51494216918945,494.5099353790283,1385,1
173,control,18.0,11,1,600.330114364624,600.3232002258301,1456,1
174,control,19.0,11,1,791.8310165405273,791.8229103088379,1308,1
175,control,20.0,11,1,604.8309803009033,604.8269271850586,847,1
176,control,21.0,11,1,603.3957004547119,603.3937931060791,1227,1
177,control,22.0,11,1,593.4998989105225,593.4956073760986,1176,1
178,control,23.0,11,1,714.155912399292,714.1537666320801,1454,1
179,control,24.0,11,1,723.8359451293945,723.8340377807617,812,1
180,control,25.0,11,0,1515.3088569641113,1515.305757522583,1119,1
181,control,26.0,11,1,591.9733047485352,591.9702053070068,1332,1
182,control,27.0,11,0,790.6618118286133,790.6558513641357,1338,1
183,control,28.0,11,1,792.0060157775879,792.0050621032715,1005,1
184,control,29.0,11,1,781.951904296875,781.9509506225586,1369,1
185,control,30.0,11,0,792.2239303588867,792.2208309173584,1103,1
186,control,5.0,11,1,131.4218044281006,537.1556282043457,1120,1
187,control,6.0,11,1,98.94180297851562,723.7198352813721,960,1
188,control,7.0,11,1,593.1961536407471,593.1918621063232,1323,1
189,control,8.0,11,1,594.4750308990479,594.4721698760986,1325,1
190,control,9.0,11,1,593.6529636383057,593.6510562896729,884,1
191,control,10.0,11,1,524.7659683227539,524.7628688812256,1150,1
192,control,11.0,11,1,593.3160781860352,593.3070182800293,836,1
193,control,12.0,11,1,603.5757064819336,603.5709381103516,1033,1
194,control,13.0,11,1,592.0329093933105,592.0267105102539,822,1
195,control,14.0,11,1,791.6150093078613,791.6080951690674,1334,1
196,control,15.0,20,1,592.6840305328369,592.6802158355713,899,1
197,control,16.0,11,1,693.8598155975342,693.8579082489014,1181,1
198,control,17.0,11,1,591.5100574493408,591.5069580078125,812,1
199,control,18.0,11,1,614.9640083312988,614.9630546569824,920,1
200,control,19.0,11,1,519.9160575866699,519.9148654937744,1052,1
201,control,20.0,11,1,428.06291580200195,428.06196212768555,1231,1
202,control,21.0,11,1,616.5409088134766,616.5399551391602,1080,1
203,control,22.0,11,1,526.1287689208984,526.1199474334717,1142,1
204,control,23.0,11,1,526.8619060516357,526.8609523773193,1042,1
205,control,24.0,11,1,791.126012802124,791.1181449890137,1415,1
206,control,25.0,14,1,592.6258563995361,592.6210880279541,847,0
207,control,25.0,14,1,593.16086769104,593.156099319458,1500,1
208,control,26.0,11,1,591.742992401123,591.7422771453857,896,1
209,control,27.0,14,0,792.9420471191406,792.9389476776123,845,1
210,control,28.0,11,1,979.9721240997314,979.971170425415,893,1
211,control,29.0,11,1,790.5399799346924,790.5359268188477,1384,1
212,control,30.0,14,1,596.9090461730957,596.9047546386719,948,1
213,control,5.0,8,1,594.4850444793701,594.4850444793701,1306,1
214,control,6.0,8,1,197.49975204467773,503.7357807159424,1337,1
215,control,7.0,8,0,537.9059314727783,537.9018783569336,1059,1
216,control,8.0,8,1,196.89297676086426,524.965763092041,1185,1
217,control,9.0,8,1,197.2939968109131,791.0799980163574,1478,1
218,control,10.0,8,1,592.7979946136475,592.7939414978027,1363,1
219,control,11.0,8,1,493.7779903411865,493.7751293182373,1484,1
220,control,12.0,8,1,99.46966171264648,437.4957084655762,1389,1
221,control,13.0,8,1,592.5078392028809,592.5052165985107,928,1
222,control,14.0,8,1,585.2468013763428,585.2458477020264,1223,1
223,control,15.0,18,1,593.4531688690186,593.4491157531738,1436,1
224,control,16.0,8,1,725.2919673919678,725.290060043335,1477,1
225,control,17.0,8,1,603.6179065704346,603.6131381988525,1121,1
226,control,18.0,8,1,527.4901390075684,527.4879932403564,863,1
227,control,19.0,8,1,585.1418972015381,585.1409435272217,1471,0
228,control,19.0,8,1,1190.0310516357422,1190.0291442871094,1420,1
229,control,20.0,8,1,783.9012145996094,783.9000225067139,926,1
230,control,21.0,8,1,596.6851711273193,596.6808795928955,1025,1
231,control,22.0,8,1,691.7798519134521,691.774845123291,1174,1
232,control,23.0,8,1,1131.2289237976074,1131.2179565429688,940,1
233,control,24.0,8,0,987.8652095794678,987.8621101379395,1293,1
234,control,25.0,14,1,524.2400169372559,524.2369174957275,1027,1
235,control,26.0,8,1,1317.3258304595947,1317.322015762329,1288,1
236,control,27.0,17,1,595.2801704406738,595.2792167663574,1279,1
237,control,28.0,8,1,912.9660129547119,912.9641056060791,1189,1
238,control,29.0,8,1,825.0288963317871,825.0241279602051,1398,0
239,control,29.0,8,1,1321.1488723754883,1321.1441040039062,818,1
240,control,30.0,14,1,790.7519340515137,790.7500267028809,1411,1
241,control,5.0,8,1,98.56891632080078,724.5659828186035,972,1
242,control,6.0,8,1,593.3690071105957,593.3640003204346,1346,1
243,control,7.0,11,1,198.134183883667,803.4319877624512,1055,1
244,control,8.0,8,1,198.80080223083496,594.0098762512207,900,1
245,control,9.0,8,1,593.1398868560791,593.1339263916016,1178,1
246,control,10.0,8,1,593.1670665740967,593.1639671325684,825,1
247,control,11.0,8,0,1376.4081001281738,1376.4071464538574,1002,1
248,control,12.0,8,1,989.8922443389893,989.886999130249,978,1
249,control,13.0,8,0,822.3159313201904,822.3111629486084,1416,1
250,control,14.0,8,1,596.351146697998,596.3461399078369,1418,1
251,control,15.0,18,1,525.4719257354736,525.468111038208,1251,1
252,control,16.0,8,1,997.0471858978271,997.0450401306152,1199,0
253,control,16.0,8,1,978.7178039550781,978.7168502807617,1291,1
254,control,17.0,8,1,734.5490455627441,734.5471382141113,1490,1
255,control,18.0,8,1,890.6280994415283,890.625,1353,1
256,control,19.0,8,1,693.7808990478516,693.7799453735352,1038,1
257,control,20.0,8,1,492.60807037353516,492.60497093200684,953,1
258,control,21.0,8,1,493.9570426940918,493.94702911376953,1436,1
259,control,22.0,8,1,1572.376012802124,1572.3750591278076,1420,0
260,control,22.0,8,1,890.0368213653564,890.0339603424072,986,1
261,control,23.0,8,1,682.1732521057129,682.1722984313965,1177,1
262,control,24.0,11,0,989.210844039917,989.2070293426514,812,1
263,control,25.0,12,1,592.170000076294,592.1669006347656,1094,1
264,control,26.0,8,1,591.865062713623,591.8619632720947,984,1
265,control,27.0,17,1,526.8878936767578,526.8838405609131,1091,1
266,control,28.0,8,0,1121.849775314331,1121.8459606170654,823,1
267,control,29.0,8,1,689.4690990447998,689.4629001617432,1224,1
268,control,30.0,12,1,701.5109062194824,701.5061378479004,1005,1
269,control,5.0,5,1,99.71117973327637,493.8230514526367,962,1
270,control,6.0,5,1,196.81096076965332,592.9148197174072,1312,1
271,control,7.0,11,1,98.10805320739746,591.4640426635742,1079,1
272,control,8.0,5,1,582.8332901000977,582.8320980072021,1467,1
273,control,9.0,5,1,495.1450824737549,495.14198303222656,1329,1
274,control,10.0,5,1,426.8629550933838,426.861047744751,1422,1
275,control,11.0,11,1,494.6870803833008,494.6780204772949,1424,1
276,control,12.0,5,1,593.1777954101562,593.1739807128906,1355,1
277,control,13.0,11,1,515.8588886260986,515.8579349517822,1246,1
278,control,14.0,5,0,1032.696008682251,1032.689094543457,1342,1
279,control,15.0,17,1,493.94774436950684,493.9448833465576,835,1
280,control,16.0,5,1,892.0819759368896,892.0810222625732,1245,1
281,control,17.0,5,1,702.4610042572021,702.4528980255127,1197,1
282,control,18.0,5,1,691.5960311889648,691.5919780731201,1346,1
283,control,19.0,5,1,597.095251083374,597.0931053161621,1238,1
284,control,20.0,5,0,798.516035079956,798.5141277313232,1215,1
285,control,21.0,5,0,889.1811370849609,889.1730308532715,1205,1
286,control,22.0,5,1,902.4558067321777,902.454137802124,1481,1
287,control,23.0,5,0,894.9558734893799,894.9539661407471,1448,1
288,control,24.0,14,1,493.0558204650879,493.04986000061035,931,1
289,control,25.0,12,1,491.9700622558594,491.96600914001465,863,1
290,control,26.0,5,1,703.1481266021729,703.1452655792236,1052,1
291,control,27.0,15,1,626.8889904022217,626.8880367279053,1092,0
292,control,27.0,15,1,526.3500213623047,526.34596824646,1307,0
293,control,27.0,15,1,594.2552089691162,594.2502021789551,1058,1
294,control,28.0,11,0,822.8778839111328,822.8740692138672,966,1
295,control,29.0,5,1,791.3761138916016,791.3720607757568,1065,1
296,control,30.0,12,1,802.2358417510986,802.2305965423584,1190,1
297,control,5.0,5,1,92.58198738098145,417.2649383544922,1017,1
298,control,6.0,5,1,98.2351303100586,429.5039176940918,814,1
299,control,7.0,9,1,197.54695892333984,1218.1708812713623,1399,1
300,control,8.0,5,1,405.4980278015137,405.4880142211914,1455,1
301,control,9.0,5,1,625.5519390106201,625.5478858947754,1001,1
302,control,10.0,5,1,98.81091117858887,428.51901054382324,1063,1
303,control,11.0,11,1,428.1878471374512,428.18713188171387,1371,1
304,control,12.0,5,1,626.8761157989502,626.8730163574219,923,1
305,control,13.0,11,1,396.6360092163086,396.6331481933594,1306,1
306,control,14.0,8,1,593.2290554046631,593.2259559631348,890,1
307,control,15.0,17,1,515.5119895935059,515.5110359191895,1449,1
308,control,16.0,5,0,780.4410457611084,780.4398536682129,1154,1
309,control,17.0,5,1,593.5430526733398,593.5392379760742,1197,1
310,control,18.0,5,0,823.3489990234375,823.3458995819092,1257,1
311,control,19.0,5,1,592.9460525512695,592.9441452026367,1094,1
312,control,20.0,8,1,614.3159866333008,614.3150329589844,989,1
313,control,21.0,8,1,527.2879600524902,527.2819995880127,1268,1
314,control,22.0,5,1,792.2422885894775,792.2401428222656,1164,1
315,control,23.0,8,0,394.79589462280273,394.7932720184326,1189,1
316,control,24.0,14,1,495.0101375579834,495.009183883667,1430,1
317,control,25.0,11,1,592.5228595733643,592.5209522247314,832,1
318,control,26.0,5,0,693.0251121520996,693.0220127105713,939,1
319,control,27.0,15,1,492.5858974456787,492.581844329834,991,1
320,control,28.0,14,1,583.5480690002441,583.5471153259277,1206,1
321,control,29.0,5,1,803.2839298248291,803.281307220459,910,1
322,control,30.0,11,1,692.9769515991211,692.9740905761719,996,1
323,control,5.0,2,1,99.83325004577637,692.5101280212402,1458,1
324,control,6.0,2,1,98.90890121459961,691.6229724884033,883,1
325,control,7.0,9,1,197.37005233764648,394.819974899292,849,1
326,control,8.0,2,0,99.26104545593262,690.2790069580078,1396,1
327,control,9.0,2,0,691.6937828063965,691.6887760162354,1220,1
328,control,10.0,2,0,100.12388229370117,693.0508613586426,1324,1
329,control,11.0,9,1,98.3889102935791,484.13681983947754,996,1
330,control,12.0,2,0,692.5010681152344,692.4998760223389,1256,1
331,control,13.0,9,1,502.4588108062744,502.4566650390625,1021,1
332,control,14.0,8,1,790.9939289093018,790.9829616546631,1256,1
333,control,15.0,15,1,495.6660270690918,495.6650733947754,1017,1
334,control,16.0,8,1,495.06211280822754,495.06092071533203,1424,1
335,control,17.0,2,0,796.1318492889404,796.1299419403076,1370,1
336,control,18.0,8,1,396.2061405181885,396.20494842529297,1442,1
337,control,19.0,2,1,691.5440559387207,691.5409564971924,1042,1
338,control,20.0,8,1,496.3641166687012,496.36292457580566,1359,1
339,control,21.0,8,1,493.927001953125,493.9248561859131,1428,1
340,control,22.0,2,0,781.6598415374756,781.6579341888428,1445,1
341,control,23.0,11,1,494.21191215515137,494.21095848083496,1033,1
342,control,24.0,12,1,693.1641101837158,693.1602954864502,1006,1
343,control,25.0,11,1,733.3509922027588,733.3500385284424,805,1
344,control,26.0,8,1,494.11988258361816,494.11773681640625,1164,1
345,control,27.0,14,1,634.1609954833984,634.1540813446045,1304,1
346,control,28.0,14,0,701.3580799102783,701.3533115386963,1146,1
347,control,29.0,2,1,1087.7089500427246,1087.7058506011963,939,1
348,control,30.0,11,0,891.8240070343018,891.819953918457,1022,1
349,control,5.0,2,1,99.06196594238281,1000.5288124084473,1099,1
350,control,6.0,2,1,99.57504272460938,736.8381023406982,1444,1
351,control,7.0,8,1,100.76308250427246,505.5248737335205,1093,1
352,control,8.0,5,1,98.64115715026855,593.454122543335,1451,1
353,control,9.0,5,1,98.24514389038086,790.7581329345703,923,1
354,control,10.0,5,1,529.5581817626953,529.5569896697998,1411,1
355,control,11.0,9,1,396.0137367248535,396.0127830505371,1418,1
356,control,12.0,5,1,788.693904876709,788.6900901794434,849,1
357,control,13.0,9,1,493.3159351348877,493.31212043762207,1368,1
358,control,14.0,6,1,691.8210983276367,691.8179988861084,1221,1
359,control,15.0,15,1,494.2281246185303,494.22311782836914,850,1
360,control,16.0,8,1,494.9507713317871,494.9500560760498,871,1
361,control,17.0,5,1,692.7952766418457,692.7943229675293,1044,1
362,control,18.0,8,1,483.5050106048584,483.5028648376465,1025,1
363,control,19.0,2,0,700.7641792297363,700.7570266723633,1082,1
364,control,20.0,6,0,789.9646759033203,789.9608612060547,1437,1
365,control,21.0,6,0,789.9589538574219,789.9551391601562,963,1
366,control,22.0,5,0,1088.313102722168,1088.3100032806396,813,1
367,control,23.0,11,1,482.71727561950684,482.71632194519043,908,1
368,control,24.0,12,1,504.12487983703613,504.1201114654541,1109,1
369,control,25.0,9,0,790.7581329345703,790.7559871673584,874,1
370,control,26.0,8,1,681.6191673278809,681.6182136535645,926,1
371,control,27.0,14,1,493.9250946044922,493.92104148864746,1440,1
372,control,28.0,15,1,483.3199977874756,483.3190441131592,931,1
373,control,29.0,2,0,779.5228958129883,779.522180557251,1467,1
374,control,30.0,12,1,592.9741859436035,592.9672718048096,1485,1
375,control,5.0,1,0,98.7250804901123,1120.3420162200928,1107,1
376,control,6.0,1,1,99.16996955871582,691.7369365692139,1386,1
377,control,7.0,8,1,95.76702117919922,484.846830368042,1211,1
378,control,8.0,5,1,593.9991474151611,593.9910411834717,953,1
379,control,9.0,5,1,99.2128849029541,491.88899993896484,849,1
380,control,10.0,5,1,498.64768981933594,498.64673614501953,1320,1
381,control,11.0,8,1,493.73817443847656,493.73698234558105,1047,1
382,control,12.0,5,1,623.8021850585938,623.8000392913818,945,1
383,control,13.0,8,1,427.0298480987549,427.02794075012207,1054,1
384,control,14.0,6,1,493.5421943664551,493.54004859924316,1481,1
385,control,15.0,14,1,396.89183235168457,396.89087867736816,921,1
386,control,16.0,6,1,692.5480365753174,692.5449371337891,918,1
387,control,17.0,5,1,780.8220386505127,780.8210849761963,807,1
388,control,18.0,6,0,905.3430557250977,905.3399562835693,834,1
389,control,19.0,5,1,691.8478012084961,691.8458938598633,809,1
390,control,20.0,8,1,594.6109294891357,594.606876373291,966,1
391,control,21.0,8,0,978.550910949707,978.5499572753906,1342,1
392,control,22.0,8,0,1187.5660419464111,1187.5619888305664,1248,1
393,control,23.0,9,1,592.1790599822998,592.1742916107178,914,1
394,control,24.0,11,1,507.0350170135498,507.0300102233887,1329,1
395,control,25.0,11,1,592.9019451141357,592.8990840911865,954,1
396,control,26.0,6,0,880.2490234375,880.2480697631836,938,1
1,quadbright,5.0,20,1,197.70288467407227,792.823076248169,956,1
2,quadbright,6.0,20,1,198.5311508178711,723.3741283416748,1296,1
3,quadbright,7.0,20,1,197.3869800567627,792.1819686889648,1056,1
4,quadbright,8.0,20,1,789.452075958252,789.4492149353027,1382,1
5,quadbright,9.0,20,1,792.0513153076172,792.0432090759277,1033,1
6,quadbright,10.0,20,1,791.0220623016357,791.0189628601074,1456,1
7,quadbright,11.0,20,1,626.6522407531738,626.6510486602783,1143,1
8,quadbright,12.0,20,1,603.532075881958,603.5301685333252,1129,1
9,quadbright,13.0,20,1,800.0390529632568,800.0378608703613,987,1
10,quadbright,14.0,20,1,792.0570373535156,792.0539379119873,945,1
11,quadbright,15.0,20,1,703.1540870666504,703.1521797180176,1352,1
12,quadbright,16.0,20,1,723.5860824584961,723.5820293426514,956,1
13,quadbright,17.0,20,1,624.4840621948242,624.4790554046631,838,1
14,quadbright,18.0,20,1,920.9280014038086,920.9208488464355,1342,1
15,quadbright,19.0,20,1,592.7906036376953,592.7858352661133,1217,1
16,quadbright,20.0,20,1,593.2221412658691,593.2199954986572,1495,1
17,quadbright,21.0,20,1,525.1717567443848,525.1660346984863,1304,1
18,quadbright,22.0,20,1,790.1449203491211,790.1401519775391,1298,1
19,quadbright,23.0,20,1,593.1839942932129,593.1820869445801,988,1
20,quadbright,24.0,20,1,682.4729442596436,682.4719905853271,1270,1
21,quadbright,25.0,20,1,792.4840450286865,792.4821376800537,935,1
22,quadbright,26.0,20,0,1316.6427612304688,1316.6389465332031,1138,1
23,quadbright,27.0,20,1,832.0620059967041,832.0589065551758,866,1
24,quadbright,28.0,20,1,797.8558540344238,797.8529930114746,1263,1
25,quadbright,29.0,20,1,593.2977199554443,593.2958126068115,1223,1
26,quadbright,30.0,20,0,978.306770324707,978.3058166503906,840,1
27,quadbright,5.0,20,1,198.23598861694336,790.9691333770752,1276,1
28,quadbright,6.0,20,1,789.8843288421631,789.8812294006348,1388,1
29,quadbright,7.0,20,1,198.60267639160156,790.4658317565918,814,1
30,quadbright,8.0,20,1,98.67286682128906,526.5758037567139,1478,1
31,quadbright,9.0,20,1,593.1940078735352,593.1899547576904,1172,1
32,quadbright,10.0,20,1,593.2278633117676,593.2207107543945,1165,1
33,quadbright,11.0,20,1,525.4712104797363,525.4669189453125,1236,1
34,quadbright,12.0,20,1,593.2629108428955,593.2600498199463,1008,1
35,quadbright,13.0,20,1,593.6679840087891,593.6658382415771,1248,1
36,quadbright,14.0,20,1,791.1801338195801,791.1770343780518,1042,1
37,quadbright,15.0,20,1,525.5191326141357,525.5141258239746,1412,1
38,quadbright,16.0,20,1,592.7450656890869,592.7419662475586,1428,1
39,quadbright,17.0,20,1,592.7097797393799,592.7059650421143,1475,1
40,quadbright,18.0,20,1,593.5258865356445,593.5218334197998,1160,1
41,quadbright,19.0,20,1,604.6741008758545,604.6719551086426,1440,1
42,quadbright,20.0,20,1,597.1407890319824,597.1400737762451,1105,1
43,quadbright,21.0,20,1,798.5949516296387,798.5930442810059,1006,1
44,quadbright,22.0,20,1,593.0500030517578,593.0469036102295,1295,1
45,quadbright,23.0,20,1,792.125940322876,792.1233177185059,1126,1
46,quadbright,24.0,20,0,1387.895107269287,1387.8779411315918,823,1
47,quadbright,25.0,20,1,592.1280384063721,592.1223163604736,878,1
48,quadbright,26.0,23,1,802.5388717651367,802.5307655334473,959,1
49,quadbright,27.0,20,1,790.8978462219238,790.8949851989746,1436,1
50,quadbright,28.0,20,1,801.4249801635742,801.4228343963623,1006,1
51,quadbright,29.0,20,0,989.4089698791504,989.403247833252,1308,1
52,quadbright,30.0,23,1,425.1229763031006,425.11510848999023,870,1
53,quadbright,5.0,17,1,99.04217720031738,626.4562606811523,960,1
54,quadbright,6.0,17,1,198.23789596557617,790.6291484832764,1299,1
55,quadbright,7.0,17,1,197.85070419311523,603.9936542510986,1011,1
56,quadbright,8.0,17,1,593.4700965881348,593.4638977050781,1314,1
57,quadbright,9.0,17,1,593.2793617248535,593.2722091674805,1469,1
58,quadbright,10.0,17,1,735.2859973907471,735.2821826934814,1336,1
59,quadbright,11.0,17,1,800.264835357666,800.2610206604004,1093,0
60,quadbright,11.0,17,1,593.4038162231445,593.4028625488281,817,1
61,quadbright,12.0,17,1,593.4610366821289,593.4569835662842,1096,1
62,quadbright,13.0,17,1,592.411994934082,592.4060344696045,1367,1
63,quadbright,14.0,17,1,593.825101852417,593.8210487365723,1381,1
64,quadbright,15.0,17,1,592.6830768585205,592.6809310913086,1011,1
65,quadbright,16.0,17,1,801.325798034668,801.3210296630859,1244,1
66,quadbright,17.0,17,1,691.6968822479248,691.6940212249756,1455,1
67,quadbright,18.0,17,1,594.1939353942871,594.1870212554932,943,1
68,quadbright,19.0,17,1,629.1868686676025,629.1859149932861,1292,1
69,quadbright,20.0,17,1,524.7859954833984,524.7800350189209,1485,1
70,quadbright,21.0,17,1,604.4542789459229,604.4473648071289,1003,1
71,quadbright,22.0,17,1,791.4221286773682,791.4121150970459,1452,1
72,quadbright,23.0,17,1,823.9607810974121,823.9569664001465,1329,1
73,quadbright,24.0,23,1,592.505931854248,592.5030708312988,1151,1
74,quadbright,25.0,17,1,594.1061973571777,594.1052436828613,1129,1
75,quadbright,26.0,23,1,990.4389381408691,990.433931350708,1030,1
76,quadbright,27.0,17,1,526.5669822692871,526.5660285949707,1111,1
77,quadbright,28.0,17,0,802.7920722961426,802.7889728546143,1496,1
78,quadbright,29.0,23,1,604.071855545044,604.069709777832,1483,1
79,quadbright,30.0,23,1,801.5220165252686,801.5203475952148,954,1
80,quadbright,5.0,17,1,198.00901412963867,592.8018093109131,1192,1
81,quadbright,6.0,17,0,207.52882957458496,1228.1198501586914,1230,1
82,quadbright,7.0,17,1,198.3051300048828,794.5983409881592,1213,1
83,quadbright,8.0,17,1,206.0220241546631,801.5210628509521,912,1
84,quadbright,9.0,17,1,604.1159629821777,604.1069030761719,878,1
85,quadbright,10.0,17,1,434.0369701385498,434.0331554412842,930,1
86,quadbright,11.0,17,1,603.4848690032959,603.4817695617676,1489,1
87,quadbright,12.0,17,1,580.6231498718262,580.6221961975098,1300,1
88,quadbright,13.0,17,1,798.7508773803711,798.7408638000488,1370,1
89,quadbright,14.0,17,1,593.5628414154053,593.559980392456,1431,1
90,quadbright,15.0,17,1,582.9818248748779,582.9801559448242,877,1
91,quadbright,16.0,17,1,593.1520462036133,593.1472778320312,1164,1
92,quadbright,17.0,17,1,432.5120449066162,432.5110912322998,1150,1
93,quadbright,18.0,17,1,801.4960289001465,801.4929294586182,1268,1
94,quadbright,19.0,17,1,791.074275970459,791.0690307617188,938,1
95,quadbright,20.0,17,1,593.350887298584,593.3418273925781,1074,1
96,quadbright,21.0,17,1,593.1000709533691,593.0991172790527,1120,1
97,quadbright,22.0,17,1,593.5990810394287,593.5959815979004,807,1
98,quadbright,23.0,17,1,791.58616065979,791.5799617767334,1126,1
99,quadbright,24.0,23,1,593.7769412994385,593.7709808349609,1221,1
100,quadbright,25.0,17,1,583.6889743804932,583.6868286132812,824,1
101,quadbright,26.0,20,0,723.9439487457275,723.9358425140381,1453,1
102,quadbright,27.0,17,1,527.5828838348389,527.5828838348389,1491,1
103,quadbright,28.0,20,1,933.9041709899902,933.9001178741455,1307,1
104,quadbright,29.0,23,1,623.4579086303711,623.45290184021,1282,1
105,quadbright,30.0,20,1,536.6189479827881,536.6148948669434,1048,1
106,quadbright,5.0,14,1,791.3479804992676,791.3429737091064,1434,1
107,quadbright,6.0,20,1,198.41694831848145,596.3468551635742,1411,1
108,quadbright,7.0,14,1,199.48482513427734,592.2377109527588,818,1
109,quadbright,8.0,14,1,601.923942565918,601.9198894500732,902,1
110,quadbright,9.0,14,1,586.9917869567871,586.9908332824707,847,0
111,quadbright,9.0,14,1,198.81415367126465,604.3331623077393,1318,1
112,quadbright,10.0,14,1,197.5080966949463,582.9591751098633,817,1
113,quadbright,11.0,14,1,593.5091972351074,593.5022830963135,1398,1
114,quadbright,12.0,14,1,793.4970855712891,793.4949398040771,1185,1
115,quadbright,13.0,14,1,200.48093795776367,604.1269302368164,1313,1
116,quadbright,14.0,14,0,1187.011957168579,1187.0090961456299,945,0
117,quadbright,14.0,14,0,791.0528182983398,791.0511493682861,1488,1
118,quadbright,15.0,14,1,593.0161476135254,593.0130481719971,1024,1
119,quadbright,16.0,14,1,591.9420719146729,591.9420719146729,992,1
120,quadbright,17.0,14,1,593.5039520263672,593.5001373291016,960,1
121,quadbright,18.0,14,1,519.7081565856934,519.707202911377,960,1
122,quadbright,19.0,14,1,593.4019088745117,593.397855758667,1089,1
123,quadbright,20.0,14,1,794.3520545959473,794.3501472473145,1036,1
124,quadbright,21.0,14,1,595.9539413452148,595.9501266479492,1328,1
125,quadbright,22.0,14,1,692.3940181732178,692.389726638794,1390,1
126,quadbright,23.0,14,1,599.5991230010986,599.5919704437256,1034,1
127,quadbright,24.0,21,1,591.7367935180664,591.73583984375,1027,1
128,quadbright,25.0,14,1,792.1671867370605,792.1621799468994,820,1
129,quadbright,26.0,23,1,592.3919677734375,592.3857688903809,1423,1
130,quadbright,27.0,14,1,593.0979251861572,593.0948257446289,1321,1
131,quadbright,28.0,20,1,791.0170555114746,791.0099029541016,1272,1
132,quadbright,29.0,21,1,624.4311332702637,624.4251728057861,811,1
133,quadbright,30.0,20,1,922.9381084442139,922.9340553283691,1058,1
134,quadbright,5.0,14,1,198.05431365966797,595.1170921325684,1248,1
135,quadbright,6.0,20,1,198.32086563110352,594.2649841308594,1182,1
136,quadbright,7.0,14,1,197.951078414917,593.5699939727783,1416,1
137,quadbright,8.0,14,1,197.32379913330078,790.8868789672852,1094,1
138,quadbright,9.0,14,1,495.0282573699951,495.0263500213623,862,1
139,quadbright,10.0,14,1,592.5707817077637,592.5676822662354,1100,1
140,quadbright,11.0,14,1,592.4789905548096,592.4708843231201,1435,1
141,quadbright,12.0,14,1,596.7519283294678,596.7450141906738,1134,1
142,quadbright,13.0,14,1,606.5731048583984,606.5692901611328,1254,1
143,quadbright,14.0,17,1,593.5370922088623,593.5349464416504,936,1
144,quadbright,15.0,14,1,592.7512645721436,592.7412509918213,963,1
145,quadbright,16.0,14,1,592.9081439971924,592.9028987884521,875,1
146,quadbright,17.0,14,1,583.3480358123779,583.3468437194824,851,1
147,quadbright,18.0,14,1,592.5939083099365,592.5910472869873,973,1
148,quadbright,19.0,14,1,593.7271118164062,593.7261581420898,879,1
149,quadbright,20.0,14,1,428.7111759185791,428.7102222442627,1444,1
150,quadbright,21.0,14,1,1230.5479049682617,1230.541706085205,934,1
151,quadbright,22.0,14,1,592.8268432617188,592.8246974945068,939,1
152,quadbright,23.0,14,1,791.58616065979,791.5840148925781,1297,1
153,quadbright,24.0,21,1,624.8641014099121,624.859094619751,1280,1
154,quadbright,25.0,14,1,820.9071159362793,820.9059238433838,960,1
155,quadbright,26.0,23,1,592.9028987884521,592.883825302124,1110,1
156,quadbright,27.0,14,1,791.2909984588623,791.287899017334,1162,1
157,quadbright,28.0,18,0,295.7468032836914,295.7456111907959,1410,1
158,quadbright,29.0,21,1,428.743839263916,428.7428855895996,1100,1
159,quadbright,30.0,17,1,623.7618923187256,623.7561702728271,925,1
160,quadbright,5.0,11,1,195.05906105041504,592.3562049865723,1496,1
161,quadbright,6.0,18,1,198.1351375579834,594.3601131439209,1090,1
162,quadbright,7.0,11,1,98.99020195007324,536.7040634155273,1477,1
163,quadbright,8.0,11,1,197.44205474853516,592.2760963439941,1496,1
164,quadbright,9.0,11,1,205.9159278869629,600.7919311523438,1126,1
165,quadbright,10.0,11,1,593.7991142272949,593.7981605529785,1058,1
166,quadbright,11.0,11,1,494.6858882904053,494.68421936035156,1441,1
167,quadbright,12.0,11,1,593.5890674591064,593.5862064361572,889,1
168,quadbright,13.0,11,1,536.5588665008545,536.5550518035889,987,1
169,quadbright,14.0,17,1,195.83725929260254,524.0530967712402,833,1
170,quadbright,15.0,11,1,791.4092540740967,791.4018630981445,1001,1
171,quadbright,16.0,11,1,1021.0180282592773,1021.0127830505371,1489,1
172,quadbright,17.0,11,1,1318.061113357544,1318.05419921875,1423,1
173,quadbright,18.0,11,1,790.9719944000244,790.9519672393799,1145,1
174,quadbright,19.0,11,0,992.455005645752,992.4519062042236,1075,1
175,quadbright,20.0,11,1,1814.3868446350098,1814.3842220306396,977,1
176,quadbright,21.0,11,1,782.0188999176025,782.0169925689697,1466,1
177,quadbright,22.0,11,1,1506.6249370574951,1506.6230297088623,1394,1
178,quadbright,23.0,11,1,792.1566963195801,792.1557426452637,1232,1
179,quadbright,24.0,20,1,603.3461093902588,603.3439636230469,1361,1
180,quadbright,25.0,11,1,989.8109436035156,989.8056983947754,1317,1
181,quadbright,26.0,21,1,526.9057750701904,526.904821395874,1091,0
182,quadbright,26.0,21,1,526.6392230987549,526.6320705413818,1281,1
183,quadbright,27.0,11,1,1000.3490447998047,1000.3461837768555,1354,1
184,quadbright,28.0,20,1,583.5409164428711,583.5402011871338,1061,1
185,quadbright,29.0,20,1,592.1220779418945,592.1180248260498,1242,1
186,quadbright,30.0,17,1,1572.9091167449951,1572.9081630706787,1416,1
187,quadbright,5.0,11,1,190.10210037231445,680.5367469787598,1076,1
188,quadbright,6.0,18,1,98.15621376037598,525.0890254974365,1370,1
189,quadbright,7.0,11,1,201.8108367919922,595.5009460449219,912,1
190,quadbright,8.0,11,1,594.5949554443359,594.5918560028076,815,1
191,quadbright,9.0,11,1,526.9618034362793,526.9567966461182,1258,1
192,quadbright,10.0,11,1,188.7340545654297,583.4360122680664,833,1
193,quadbright,11.0,11,1,425.8148670196533,425.8098602294922,1275,1
194,quadbright,12.0,11,0,921.8919277191162,921.8878746032715,919,1
195,quadbright,13.0,11,1,592.8421020507812,592.8380489349365,1380,1
196,quadbright,14.0,15,1,597.0571041107178,597.052812576294,1033,1
197,quadbright,15.0,11,1,536.5920066833496,536.588191986084,978,1
198,quadbright,16.0,11,0,791.5117740631104,791.5027141571045,1390,1
199,quadbright,17.0,11,1,593.2409763336182,593.2371616363525,967,1
200,quadbright,18.0,11,1,623.8667964935303,623.8589286804199,1135,1
201,quadbright,19.0,14,1,593.7108993530273,593.7099456787109,1418,1
202,quadbright,20.0,11,0,791.0528182983398,791.0439968109131,1398,1
203,quadbright,21.0,11,1,525.662899017334,525.6538391113281,1253,1
204,quadbright,22.0,11,1,791.5079593658447,791.50390625,1427,1
205,quadbright,23.0,11,1,691.3628578186035,691.361665725708,1499,1
206,quadbright,24.0,20,1,625.4558563232422,625.4498958587646,1118,1
207,quadbright,25.0,11,0,920.9060668945312,920.9039211273193,1434,1
208,quadbright,26.0,21,1,592.5419330596924,592.5378799438477,1471,1
209,quadbright,27.0,11,1,800.8179664611816,800.8131980895996,1020,1
210,quadbright,28.0,20,1,525.2201557159424,525.2120494842529,1185,1
211,quadbright,29.0,20,1,624.5026588439941,624.500036239624,848,1
212,quadbright,30.0,14,1,791.222095489502,791.2178039550781,1495,1
213,quadbright,5.0,8,1,208.02807807922363,602.431058883667,957,1
214,quadbright,6.0,17,1,197.7088451385498,594.0728187561035,1048,1
215,quadbright,7.0,8,1,198.5790729522705,594.8491096496582,892,1
216,quadbright,8.0,8,1,592.7577018737793,592.7517414093018,1209,1
217,quadbright,9.0,8,0,197.1142292022705,592.6640033721924,991,1
218,quadbright,10.0,8,1,604.2227745056152,604.2189598083496,1354,1
219,quadbright,11.0,8,1,595.8008766174316,595.7999229431152,851,1
220,quadbright,12.0,14,1,595.2260494232178,595.2250957489014,1007,1
221,quadbright,13.0,8,1,789.7582054138184,789.7529602050781,1227,1
222,quadbright,14.0,15,0,1100.5358695983887,1100.531816482544,1405,1
223,quadbright,15.0,8,0,1329.0889263153076,1329.0870189666748,936,1
224,quadbright,16.0,14,1,593.325138092041,593.3213233947754,975,1
225,quadbright,17.0,8,0,790.5137538909912,790.5106544494629,1170,1
226,quadbright,18.0,8,0,1309.5219135284424,1309.5202445983887,1203,1
227,quadbright,19.0,14,1,831.8479061126709,831.8438529968262,1085,1
228,quadbright,20.0,14,1,724.3149280548096,724.3039608001709,1015,1
229,quadbright,21.0,8,1,1198.0528831481934,1198.049783706665,1361,1
230,quadbright,22.0,8,0,801.9218444824219,801.9189834594727,1307,1
231,quadbright,23.0,8,1,990.6020164489746,990.6001091003418,914,1
232,quadbright,24.0,18,1,603.9769649505615,603.9741039276123,949,1
233,quadbright,25.0,14,1,593.2068824768066,593.2049751281738,1434,1
234,quadbright,26.0,20,1,630.2480697631836,630.2468776702881,930,1
235,quadbright,27.0,8,0,1022.4089622497559,1022.4018096923828,1440,1
236,quadbright,28.0,19,1,603.7259101867676,603.7170886993408,1006,1
237,quadbright,29.0,18,1,824.3849277496338,824.3849277496338,810,1
238,quadbright,30.0,14,1,921.7112064361572,921.7050075531006,1250,0
239,quadbright,30.0,14,0,1978.511095046997,1978.5058498382568,1020,1
240,quadbright,5.0,8,1,198.65083694458008,594.1708087921143,876,1
241,quadbright,6.0,17,1,198.7299919128418,593.0750370025635,1164,1
242,quadbright,7.0,8,1,99.27701950073242,525.9160995483398,1285,1
243,quadbright,8.0,8,1,492.98882484436035,492.98572540283203,1156,1
244,quadbright,9.0,11,1,98.26397895812988,483.25490951538086,1249,1
245,quadbright,10.0,8,1,504.45008277893066,504.44626808166504,1442,1
246,quadbright,11.0,8,0,1078.1488418579102,1078.1478881835938,964,0
247,quadbright,11.0,8,1,583.8882923126221,583.8871002197266,1040,1
248,quadbright,12.0,14,1,593.6949253082275,593.6927795410156,1158,1
249,quadbright,13.0,8,1,197.91793823242188,625.8561611175537,1114,1
250,quadbright,14.0,17,1,489.13097381591797,489.12978172302246,1044,1
251,quadbright,15.0,11,1,724.7741222381592,724.7722148895264,883,1
252,quadbright,16.0,14,1,591.926097869873,591.9239521026611,1104,1
253,quadbright,17.0,11,0,1088.4809494018555,1088.4778499603271,1148,1
254,quadbright,18.0,11,0,1298.003911972046,1298.0008125305176,803,1
255,quadbright,19.0,12,1,493.9241409301758,493.91794204711914,821,0
256,quadbright,19.0,12,1,592.764139175415,592.7581787109375,1227,1
257,quadbright,20.0,14,1,703.8078308105469,703.8021087646484,892,1
258,quadbright,21.0,8,1,1033.5962772369385,1033.5931777954102,1456,1
259,quadbright,22.0,11,1,883.0587863922119,883.0578327178955,1236,1
260,quadbright,23.0,8,0,798.3179092407227,798.3129024505615,806,1
261,quadbright,24.0,18,1,428.4241199493408,428.4229278564453,1236,1
262,quadbright,25.0,14,1,3298.1038093566895,3298.1019020080566,1110,1
263,quadbright,26.0,20,1,482.8770160675049,482.87487030029297,1352,1
264,quadbright,27.0,11,0,823.883056640625,823.8809108734131,1328,1
265,quadbright,28.0,19,1,691.6468143463135,691.6449069976807,826,1
266,quadbright,29.0,18,1,592.7631855010986,592.7572250366211,937,1
267,quadbright,30.0,17,1,724.498987197876,724.4951725006104,928,1
268,quadbright,5.0,5,1,103.7290096282959,598.3700752258301,957,1
269,quadbright,6.0,15,1,199.27597045898438,492.39397048950195,1380,1
270,quadbright,7.0,5,1,790.9140586853027,790.9049987792969,1367,1
271,quadbright,8.0,5,1,98.68884086608887,788.1619930267334,1007,1
272,quadbright,9.0,11,1,396.64220809936523,593.1670665740967,1448,1
273,quadbright,10.0,5,1,823.2481479644775,823.2450485229492,837,1
274,quadbright,11.0,5,1,592.9379463195801,592.9348468780518,1455,1
275,quadbright,12.0,12,1,525.9158611297607,525.9110927581787,1054,1
276,quadbright,13.0,5,0,593.4009552001953,593.3947563171387,1137,1
277,quadbright,14.0,17,1,494.3971633911133,494.3962097167969,1203,1
278,quadbright,15.0,11,1,691.8582916259766,691.8542385101318,1351,1
279,quadbright,16.0,12,1,493.0269718170166,493.01600456237793,1234,1
280,quadbright,17.0,14,1,526.4840126037598,526.4818668365479,934,1
281,quadbright,18.0,14,1,525.8920192718506,525.8879661560059,1131,1
282,quadbright,19.0,12,1,822.1099376678467,822.1077919006348,1361,1
283,quadbright,20.0,12,0,889.2717361450195,889.2679214477539,1463,1
284,quadbright,21.0,5,0,691.9920444488525,691.9851303100586,929,1
285,quadbright,22.0,11,1,633.2871913909912,633.2800388336182,1459,1
286,quadbright,23.0,11,1,921.6952323913574,921.6923713684082,1186,0
287,quadbright,23.0,11,0,692.7750110626221,692.767858505249,904,1
288,quadbright,24.0,17,1,700.1481056213379,700.1438140869141,858,1
289,quadbright,25.0,12,1,703.1381130218506,703.1302452087402,1408,1
290,quadbright,26.0,18,0,1089.2319679260254,1089.2300605773926,906,1
291,quadbright,27.0,14,1,692.2941207885742,692.2900676727295,1459,1
292,quadbright,28.0,18,1,791.964054107666,791.9631004333496,1336,1
293,quadbright,29.0,17,0,801.7966747283936,801.7919063568115,883,1
294,quadbright,30.0,17,1,690.8950805664062,690.8919811248779,1267,1
295,quadbright,5.0,5,1,199.38302040100098,593.9900875091553,1262,1
296,quadbright,6.0,15,1,99.05004501342773,427.2270202636719,1423,1
297,quadbright,7.0,5,1,105.54695129394531,433.93611907958984,1055,1
298,quadbright,8.0,5,1,296.7219352722168,793.2989597320557,940,1
299,quadbright,9.0,9,1,722.2387790679932,722.2371101379395,827,1
300,quadbright,10.0,5,0,98.75035285949707,1725.2840995788574,969,1
301,quadbright,11.0,5,1,98.14310073852539,691.0989284515381,1215,1
302,quadbright,12.0,12,1,605.3428649902344,605.3409576416016,1119,1
303,quadbright,13.0,8,1,989.4289970397949,989.4239902496338,836,0
304,quadbright,13.0,8,0,1385.265827178955,1385.2629661560059,1120,1
305,quadbright,14.0,16,1,493.3960437774658,493.3900833129883,967,1
306,quadbright,15.0,9,1,596.5602397918701,596.5590476989746,979,1
307,quadbright,16.0,12,1,394.5281505584717,394.52505111694336,1177,1
308,quadbright,17.0,14,1,493.664026260376,493.65806579589844,1139,1
309,quadbright,18.0,14,1,482.50508308410645,482.50389099121094,966,1
310,quadbright,19.0,11,0,618.3018684387207,618.3009147644043,1267,1
311,quadbright,20.0,14,1,626.3082027435303,626.3070106506348,1257,1
312,quadbright,21.0,8,1,725.0308990478516,725.010871887207,1284,1
313,quadbright,22.0,9,0,824.678897857666,824.6738910675049,1313,1
314,quadbright,23.0,14,1,592.4930572509766,592.479944229126,1258,1
315,quadbright,24.0,17,1,403.7659168243408,403.7621021270752,1054,1
316,quadbright,25.0,12,1,582.2300910949707,582.2291374206543,1373,1
317,quadbright,26.0,20,1,392.427921295166,392.4248218536377,931,1
318,quadbright,27.0,14,1,792.294979095459,792.2942638397217,1290,1
319,quadbright,28.0,18,1,793.4269905090332,793.4210300445557,1149,1
320,quadbright,29.0,18,1,724.8280048370361,724.8260974884033,843,1
321,quadbright,30.0,15,1,725.3429889678955,725.3360748291016,960,1
322,quadbright,5.0,2,1,98.6640453338623,900.6690979003906,1197,1
323,quadbright,6.0,14,1,99.75409507751465,493.9839839935303,1366,1
324,quadbright,7.0,2,0,99.05886650085449,691.8389797210693,1026,1
325,quadbright,8.0,2,0,297.14202880859375,802.4749755859375,930,1
326,quadbright,9.0,9,1,296.781063079834,594.0580368041992,821,1
327,quadbright,10.0,8,1,493.6800003051758,493.67403984069824,1271,1
328,quadbright,11.0,2,0,801.7148971557617,801.7096519470215,1149,1
329,quadbright,12.0,11,0,624.2949962615967,624.2897510528564,1444,1
330,quadbright,13.0,11,1,502.4728775024414,502.4688243865967,1482,1
331,quadbright,14.0,16,1,527.5459289550781,527.5440216064453,805,1
332,quadbright,15.0,9,0,790.4369831085205,790.4369831085205,1173,1
333,quadbright,16.0,11,1,493.4992790222168,493.49403381347656,1289,1
334,quadbright,17.0,12,1,493.1771755218506,493.17121505737305,1178,1
335,quadbright,18.0,12,1,483.68382453918457,483.68310928344727,1203,1
336,quadbright,19.0,12,1,482.8932285308838,482.89012908935547,1106,1
337,quadbright,20.0,14,1,493.88885498046875,493.88694763183594,956,1
338,quadbright,21.0,8,0,933.8207244873047,933.819055557251,1199,1
339,quadbright,22.0,11,1,623.0857372283936,623.0778694152832,1410,1
340,quadbright,23.0,14,1,527.446985244751,527.4460315704346,858,1
341,quadbright,24.0,15,1,603.0120849609375,603.0099391937256,1036,1
342,quadbright,25.0,11,1,692.3739910125732,692.3670768737793,1070,1
343,quadbright,26.0,20,1,595.5169200897217,595.512866973877,1103,1
344,quadbright,27.0,12,1,681.422233581543,681.4210414886475,1008,1
345,quadbright,28.0,17,1,691.957950592041,691.9510364532471,1454,1
346,quadbright,29.0,18,1,691.9369697570801,691.9288635253906,1200,1
347,quadbright,30.0,15,1,693.0069923400879,693.0060386657715,1414,1
348,quadbright,5.0,2,0,98.40798377990723,790.543794631958,1092,1
349,quadbright,6.0,14,1,99.21097755432129,439.54992294311523,1332,1
350,quadbright,7.0,5,0,229.50506210327148,624.330997467041,1463,1
351,quadbright,8.0,5,0,98.9072322845459,803.3018112182617,1242,1
352,quadbright,9.0,8,1,97.30410575866699,593.1079387664795,994,1
353,quadbright,10.0,8,1,494.6019649505615,494.5998191833496,1119,1
354,quadbright,11.0,5,1,692.6429271697998,692.6388740539551,1415,1
355,quadbright,12.0,12,1,494.16089057922363,494.1577911376953,1249,1
356,quadbright,13.0,11,1,682.2729110717773,682.2719573974609,847,1
357,quadbright,14.0,15,1,492.0792579650879,492.077112197876,1030,1
358,quadbright,15.0,11,0,1025.0051021575928,1025.0020027160645,1162,1
359,quadbright,16.0,11,1,529.3030738830566,529.3021202087402,1122,1
360,quadbright,17.0,12,1,525.3360271453857,525.3331661224365,1263,1
361,quadbright,18.0,12,1,483.68120193481445,483.68000984191895,1317,1
362,quadbright,19.0,12,1,492.9966926574707,492.9928779602051,908,1
363,quadbright,20.0,13,1,496.5810775756836,496.5801239013672,1422,1
364,quadbright,21.0,9,1,492.68603324890137,492.6769733428955,1244,1
365,quadbright,22.0,11,0,2079.4460773468018,2079.437017440796,1380,1
366,quadbright,23.0,12,1,691.8818950653076,691.8787956237793,1365,1
367,quadbright,24.0,15,1,625.0979900360107,625.0970363616943,834,1
368,quadbright,25.0,11,0,626.5339851379395,626.5299320220947,1115,1
369,quadbright,26.0,19,1,493.13998222351074,493.135929107666,1221,1
370,quadbright,27.0,12,1,703.9589881896973,703.9549350738525,1177,1
371,quadbright,28.0,17,1,789.9510860443115,789.9448871612549,972,1
372,quadbright,29.0,17,1,693.3941841125488,693.3841705322266,945,1
373,quadbright,30.0,14,1,691.309928894043,691.3051605224609,1497,1
374,quadbright,5.0,5,1,97.09882736206055,989.2787933349609,1442,1
375,quadbright,6.0,12,1,99.11513328552246,494.4419860839844,1491,1
376,quadbright,7.0,8,1,99.05409812927246,494.40813064575195,1155,1
377,quadbright,8.0,8,1,99.37214851379395,395.1129913330078,1155,1
378,quadbright,9.0,8,1,87.8438949584961,681.7059516906738,860,1
379,quadbright,10.0,6,0,690.8631324768066,690.8590793609619,810,1
380,quadbright,11.0,5,1,692.2149658203125,692.2092437744141,1177,1
381,quadbright,12.0,12,1,384.68098640441895,384.68003273010254,1305,1
382,quadbright,13.0,9,1,591.454267501831,591.4502143859863,924,1
383,quadbright,14.0,15,1,493.8769340515137,493.87383460998535,911,1
384,quadbright,15.0,12,1,692.8508281707764,692.84987449646,1302,1
385,quadbright,16.0,9,1,691.3909912109375,691.38503074646,817,1
386,quadbright,17.0,11,1,593.3809280395508,593.3787822723389,1062,1
387,quadbright,18.0,11,1,493.0529594421387,493.05081367492676,1142,1
388,quadbright,19.0,11,1,682.4657917022705,682.4648380279541,1413,1
389,quadbright,20.0,13,1,604.6068668365479,604.604959487915,1172,1
390,quadbright,21.0,9,1,790.6839847564697,790.6780242919922,1368,1
391,quadbright,22.0,12,1,593.5132503509521,593.5113430023193,1279,1
392,quadbright,23.0,12,1,494.9829578399658,494.9817657470703,1130,1
393,quadbright,24.0,14,0,792.1609878540039,792.1559810638428,1271,1
394,quadbright,25.0,12,1,681.4498901367188,681.4489364624023,816,1
395,quadbright,26.0,19,1,592.8359031677246,592.8289890289307,1274,1
396,quadbright,27.0,11,1,702.3680210113525,702.3601531982422,1065,1
397,quadbright,28.0,16,1,593.4739112854004,593.472957611084,860,1
398,quadbright,29.0,17,0,790.2112007141113,790.2059555053711,887,1
399,quadbright,30.0,14,1,600.9132862091064,600.9080410003662,856,1
