trial,condition,eccentricity,magnitude,correct,srt_ms,keyboard_rt_ms,pre_change_ms,valid
1,control,5.0,20,1,67.29388236999512,395.3397274017334,840,1
2,control,6.0,20,1,66.33806228637695,363.0859851837158,915,1
3,control,7.0,20,1,459.4686031341553,459.46693420410156,1466,1
4,control,8.0,20,1,99.05695915222168,393.4588432312012,1103,1
5,control,9.0,20,1,207.11874961853027,504.3179988861084,863,1
6,control,10.0,20,1,1708.2960605621338,1708.2951068878174,857,1
7,control,11.0,20,1,467.041015625,467.0388698577881,1162,1
8,control,12.0,20,1,428.7538528442383,428.74813079833984,1071,1
9,control,13.0,20,1,395.54882049560547,395.54476737976074,987,1
10,control,14.0,20,1,396.8489170074463,396.84581756591797,1116,1
11,control,15.0,20,1,470.81899642944336,470.8139896392822,1328,1
12,control,16.0,20,1,360.9592914581299,360.9583377838135,1396,1
13,control,17.0,20,1,394.30999755859375,394.30689811706543,1445,1
14,control,18.0,20,1,394.4659233093262,394.46187019348145,875,1
15,control,19.0,20,1,394.90580558776855,394.90294456481934,884,1
16,control,20.0,20,1,459.1412544250488,459.1360092163086,836,1
17,control,21.0,20,1,431.6987991333008,431.69307708740234,824,1
18,control,22.0,20,1,460.644006729126,460.63995361328125,938,1
19,control,23.0,20,1,361.76204681396484,361.7558479309082,1039,1
20,control,24.0,20,1,361.6330623626709,361.630916595459,844,1
21,control,25.0,20,1,460.04486083984375,460.0400924682617,1468,1
22,control,26.0,20,1,526.616096496582,526.611328125,1468,1
23,control,27.0,20,1,460.705041885376,460.70194244384766,1166,1
24,control,28.0,20,1,527.508020401001,527.5070667266846,905,1
25,control,29.0,20,1,526.824951171875,526.8208980560303,1468,1
26,control,30.0,20,1,593.3749675750732,593.3730602264404,1089,1
27,control,5.0,20,1,164.37888145446777,460.8287811279297,1170,1
28,control,6.0,20,1,101.06897354125977,527.407169342041,1287,1
29,control,7.0,20,1,199.02610778808594,1022.7890014648438,1348,1
30,control,8.0,20,1,98.72603416442871,394.7579860687256,1301,1
31,control,9.0,20,1,394.0279483795166,394.02318000793457,940,1
32,control,10.0,20,1,458.61196517944336,458.61005783081055,984,1
33,control,11.0,20,1,438.7948513031006,438.79103660583496,1036,1
34,control,12.0,20,1,371.387243270874,371.3831901550293,1022,1
35,control,13.0,20,1,516.6170597076416,516.6158676147461,1233,1
36,control,14.0,20,1,428.42602729797363,428.4188747406006,956,1
37,control,15.0,20,1,361.5140914916992,361.5109920501709,1266,1
38,control,16.0,20,1,396.53873443603516,396.53706550598145,1213,1
39,control,17.0,20,1,395.99084854125977,395.98989486694336,1464,1
40,control,18.0,20,1,359.0073585510254,359.00020599365234,1320,1
41,control,19.0,20,1,366.2889003753662,366.2879467010498,1010,1
42,control,20.0,20,1,430.081844329834,430.07683753967285,1245,1
43,control,21.0,20,1,395.14923095703125,395.14708518981934,1425,1
44,control,22.0,20,1,428.22813987731934,428.21812629699707,1227,1
45,control,23.0,20,1,956.3069343566895,956.3038349151611,1208,1
46,control,24.0,20,1,461.0278606414795,461.0269069671631,913,1
47,control,25.0,20,1,392.9932117462158,392.9882049560547,1489,1
48,control,26.0,20,1,428.68709564208984,428.68614196777344,1000,1
49,control,27.0,20,1,459.1031074523926,459.0950012207031,1083,1
50,control,28.0,20,1,394.9282169342041,394.9272632598877,1180,1
51,control,29.0,20,1,527.033805847168,527.0287990570068,1444,1
52,control,30.0,20,1,724.9791622161865,724.9720096588135,1209,1
53,control,5.0,17,1,67.6121711730957,395.60723304748535,1457,1
54,control,6.0,17,1,362.38718032836914,362.3850345611572,972,1
55,control,7.0,17,1,165.30799865722656,461.2910747528076,961,1
56,control,8.0,17,1,165.62891006469727,594.0268039703369,846,1
57,control,9.0,17,1,461.1508846282959,461.1489772796631,1236,1
58,control,10.0,17,1,518.8779830932617,518.8767910003662,1034,1
59,control,11.0,17,1,592.5261974334717,592.519998550415,971,1
60,control,12.0,17,1,460.82401275634766,460.8192443847656,1022,1
61,control,13.0,17,1,495.54896354675293,495.54896354675293,1108,1
62,control,14.0,17,1,493.91794204711914,493.9157962799072,1422,1
63,control,15.0,17,1,633.1419944763184,633.1391334533691,945,1
64,control,16.0,17,1,461.1799716949463,461.17496490478516,850,1
65,control,17.0,17,1,428.73096466064453,428.7300109863281,810,1
66,control,18.0,17,1,527.3196697235107,527.3158550262451,1247,1
67,control,19.0,17,0,955.7309150695801,955.7268619537354,1361,1
68,control,20.0,17,1,526.5140533447266,526.5111923217773,897,1
69,control,21.0,17,1,427.20508575439453,427.2029399871826,848,1
70,control,22.0,17,1,525.7799625396729,525.77805519104,1344,1
71,control,23.0,17,1,528.4337997436523,528.4328460693359,1236,1
72,control,24.0,17,1,395.85208892822266,395.85113525390625,1259,1
73,control,25.0,17,1,394.9010372161865,394.895076751709,1178,1
74,control,26.0,17,1,428.03406715393066,428.03192138671875,1190,1
75,control,27.0,17,1,586.7278575897217,586.7271423339844,1479,1
76,control,28.0,17,1,361.03200912475586,361.02771759033203,914,1
77,control,29.0,17,1,625.3690719604492,625.3659725189209,1081,1
78,control,30.0,17,1,594.1109657287598,594.1097736358643,1295,1
79,control,5.0,17,1,132.4939727783203,461.47871017456055,1371,1
80,control,6.0,17,1,140.58923721313477,436.7091655731201,1300,1
81,control,7.0,17,1,163.79690170288086,460.8120918273926,1049,1
82,control,8.0,17,1,133.97216796875,660.646915435791,1301,1
83,control,9.0,17,1,461.58790588378906,461.58695220947266,817,1
84,control,10.0,17,1,368.8819408416748,368.8812255859375,1187,1
85,control,11.0,17,1,169.04783248901367,529.8779010772705,1396,1
86,control,12.0,17,1,527.9638767242432,527.961254119873,822,1
87,control,13.0,17,1,592.4890041351318,592.4837589263916,936,0
88,control,13.0,17,1,66.24412536621094,570.5361366271973,1027,1
89,control,14.0,17,1,528.7621021270752,528.7611484527588,1103,1
90,control,15.0,17,1,582.0529460906982,582.0510387420654,869,1
91,control,16.0,17,1,396.56519889831543,396.5620994567871,1168,1
92,control,17.0,17,1,418.2620048522949,418.2610511779785,914,1
93,control,18.0,17,1,530.6763648986816,530.6742191314697,965,1
94,control,19.0,20,1,493.75009536743164,493.7479496002197,946,1
95,control,20.0,17,1,395.8859443664551,395.88284492492676,1030,1
96,control,21.0,17,1,692.965030670166,692.9600238800049,852,1
97,control,22.0,17,1,690.8190250396729,690.8149719238281,1441,1
98,control,23.0,17,1,527.134895324707,527.1320343017578,1393,1
99,control,24.0,17,1,526.2329578399658,526.2308120727539,1146,1
100,control,25.0,17,1,493.7117099761963,493.70861053466797,969,1
101,control,26.0,17,1,822.3662376403809,822.364091873169,1110,1
102,control,27.0,17,1,503.6742687225342,503.6730766296387,1027,1
103,control,28.0,17,1,493.4508800506592,493.44682693481445,1203,1
104,control,29.0,17,1,680.9170246124268,680.9158325195312,1265,1
105,control,30.0,17,0,680.7169914245605,680.7160377502441,1228,1
106,control,5.0,14,1,200.99592208862305,494.6889877319336,1252,1
107,control,6.0,14,1,98.56700897216797,493.74890327453613,947,1
108,control,7.0,14,1,394.24610137939453,394.2372798919678,1437,1
109,control,8.0,14,1,100.25191307067871,493.7589168548584,1243,1
110,control,9.0,14,1,492.4612045288086,492.4590587615967,1489,1
111,control,10.0,14,1,526.2751579284668,526.2730121612549,921,1
112,control,11.0,14,1,484.24339294433594,484.24220085144043,1428,1
113,control,12.0,14,1,581.2678337097168,581.2668800354004,1349,1
114,control,13.0,14,1,582.0329189300537,582.0310115814209,1494,1
115,control,14.0,14,1,592.4458503723145,592.4417972564697,1323,1
116,control,15.0,14,1,416.9738292694092,416.9728755950928,1177,1
117,control,16.0,14,1,526.5011787414551,526.4992713928223,1254,1
118,control,17.0,14,1,395.4448699951172,395.44010162353516,1468,1
119,control,18.0,14,1,396.1961269378662,396.1951732635498,1462,1
120,control,19.0,20,1,503.2188892364502,503.2179355621338,1469,1
121,control,20.0,14,1,396.3627815246582,396.359920501709,1374,1
122,control,21.0,14,1,493.9117431640625,493.9107894897461,1014,1
123,control,22.0,14,1,593.574047088623,593.5709476470947,996,1
124,control,23.0,14,1,515.3827667236328,515.3820514678955,1015,1
125,control,24.0,14,1,427.6559352874756,427.6537895202637,1484,1
126,control,25.0,14,1,516.9448852539062,516.9439315795898,1478,1
127,control,26.0,14,1,493.3960437774658,493.3938980102539,963,1
128,control,27.0,14,1,583.7898254394531,583.7888717651367,1301,1
129,control,28.0,14,1,604.2287349700928,604.224681854248,1068,1
130,control,29.0,14,1,697.8759765625,697.8719234466553,987,1
131,control,30.0,20,1,2402.6622772216797,2402.653932571411,1407,1
132,control,5.0,14,1,410.07399559020996,410.07208824157715,889,1
133,control,6.0,14,1,97.78189659118652,492.764949798584,1022,1
134,control,7.0,14,1,594.1307544708252,594.1267013549805,859,1
135,control,8.0,14,1,198.20690155029297,498.35896492004395,1082,1
136,control,9.0,14,1,591.1827087402344,591.1788940429688,1229,1
137,control,10.0,14,1,396.1482048034668,396.1460590362549,1194,1
138,control,11.0,14,1,594.4631099700928,594.4609642028809,902,1
139,control,12.0,14,1,593.8427448272705,593.8408374786377,1223,1
140,control,13.0,14,1,586.6918563842773,586.6906642913818,1174,1
141,control,14.0,14,1,495.06306648254395,495.06115913391113,1486,1
142,control,15.0,14,1,492.80786514282227,492.80595779418945,1409,1
143,control,16.0,14,1,993.304967880249,993.3018684387207,848,1
144,control,17.0,14,1,594.4397449493408,594.4347381591797,1281,1
145,control,18.0,14,1,570.167064666748,570.162296295166,1208,1
146,control,19.0,18,1,461.84396743774414,461.84325218200684,1453,1
147,control,20.0,14,1,560.4827404022217,560.4817867279053,1265,1
148,control,21.0,14,1,558.7022304534912,558.6981773376465,1323,1
149,control,22.0,14,1,561.0859394073486,561.0847473144531,1183,1
150,control,23.0,14,1,549.3199825286865,549.3190288543701,816,1
151,control,24.0,14,1,657.8817367553711,657.8779220581055,964,1
152,control,25.0,14,1,461.58790588378906,461.58504486083984,881,1
153,control,26.0,14,1,467.06104278564453,467.0548439025879,1233,1
154,control,27.0,14,1,827.286958694458,827.2860050201416,1412,1
155,control,28.0,14,1,658.001184463501,657.9980850219727,884,1
156,control,29.0,14,1,834.4759941101074,834.475040435791,1482,1
157,control,30.0,20,1,929.7161102294922,929.7101497650146,1292,1
158,control,5.0,11,1,100.91090202331543,360.7168197631836,1108,1
159,control,6.0,11,1,99.22409057617188,450.1221179962158,901,1
160,control,7.0,11,1,165.43984413146973,460.2639675140381,1069,1
161,control,8.0,11,1,558.2959651947021,558.2928657531738,1318,1
162,control,9.0,11,1,555.6149482727051,555.6139945983887,1032,1
163,control,10.0,11,1,460.94679832458496,460.94489097595215,1036,1
164,control,11.0,11,1,560.4710578918457,560.4698657989502,1248,1
165,control,12.0,11,1,549.8800277709961,549.8790740966797,1191,1
166,control,13.0,11,1,760.1339817047119,760.1311206817627,821,1
167,control,14.0,11,1,549.8621463775635,549.8611927032471,1314,1
168,control,15.0,11,1,559.0672492980957,559.0651035308838,1009,1
169,control,16.0,11,1,560.3699684143066,560.3659152984619,1049,1
170,control,17.0,11,1,558.9268207550049,558.9218139648438,833,1
171,control,18.0,11,1,461.05122566223145,461.05003356933594,1238,1
172,control,19.0,18,1,460.03198623657227,460.02984046936035,1213,1
173,control,20.0,11,1,560.434103012085,560.431957244873,866,1
174,control,21.0,11,1,659.4579219818115,659.4569683074951,1487,1
175,control,22.0,11,1,429.3949604034424,429.3937683105469,1239,1
176,control,23.0,11,1,560.9328746795654,560.9300136566162,846,1
177,control,24.0,11,1,725.7528305053711,725.7490158081055,1073,1
178,control,25.0,11,0,1483.510971069336,1483.5031032562256,908,1
179,control,26.0,11,0,1021.3661193847656,1021.3620662689209,1175,1
180,control,27.0,11,1,559.3626499176025,559.3607425689697,867,1
181,control,28.0,11,0,834.4738483428955,834.4719409942627,1373,1
182,control,29.0,11,1,664.8449897766113,664.8430824279785,1356,1
183,control,30.0,18,1,724.5190143585205,724.5149612426758,1301,1
184,control,5.0,11,1,66.26200675964355,539.2289161682129,1249,1
185,control,6.0,11,1,97.43690490722656,560.0879192352295,1115,1
186,control,7.0,11,1,560.9679222106934,560.9667301177979,1372,1
187,control,8.0,11,1,98.8609790802002,461.0028266906738,1201,1
188,control,9.0,11,1,68.38297843933105,361.65904998779297,1060,1
189,control,10.0,11,1,461.4720344543457,461.4701271057129,1467,1
190,control,11.0,11,1,457.8070640563965,457.80396461486816,924,1
191,control,12.0,11,1,450.14190673828125,450.14095306396484,914,1
192,control,13.0,11,1,562.2458457946777,562.2401237487793,1004,1
193,control,14.0,11,1,516.9947147369385,516.9937610626221,1349,1
194,control,15.0,11,1,463.70720863342285,463.70506286621094,982,1
195,control,16.0,11,1,558.7201118469238,558.7170124053955,993,1
196,control,17.0,11,1,824.9688148498535,824.9671459197998,1365,1
197,control,18.0,11,1,660.4788303375244,660.4769229888916,1167,1
198,control,19.0,17,1,360.79883575439453,360.78476905822754,969,1
199,control,20.0,11,1,562.9680156707764,562.9661083221436,842,1
200,control,21.0,11,1,558.98118019104,558.9780807495117,1409,1
201,control,22.0,11,1,559.4041347503662,559.3960285186768,1194,1
202,control,23.0,11,1,658.519983291626,658.515214920044,1124,1
203,control,24.0,11,1,460.8340263366699,460.8290195465088,1162,1
204,control,25.0,14,1,464.2488956451416,464.2457962036133,1119,1
205,control,26.0,14,1,528.0039310455322,528.0027389526367,1037,1
206,control,27.0,11,1,559.2672824859619,559.26513671875,1285,1
207,control,28.0,14,1,625.2331733703613,625.2281665802002,1466,1
208,control,29.0,11,1,824.455976486206,824.4543075561523,1390,1
209,control,30.0,18,1,559.7779750823975,559.7701072692871,907,1
210,control,5.0,8,1,165.06600379943848,530.0548076629639,864,1
211,control,6.0,8,1,201.86996459960938,562.1991157531738,1451,1
212,control,7.0,8,1,99.40195083618164,568.4421062469482,886,1
213,control,8.0,8,1,428.725004196167,428.7228584289551,1497,1
214,control,9.0,8,1,569.2269802093506,569.2219734191895,1074,1
215,control,10.0,8,1,549.2982864379883,549.2973327636719,840,1
216,control,11.0,8,1,459.9490165710449,459.9471092224121,1472,1
217,control,12.0,8,1,626.060962677002,626.054048538208,870,1
218,control,13.0,8,1,542.3121452331543,542.3080921173096,1026,1
219,control,14.0,8,1,900.5799293518066,900.5780220031738,1195,1
220,control,15.0,8,1,559.5409870147705,559.5309734344482,1124,1
221,control,16.0,8,1,625.9438991546631,625.9427070617676,1361,1
222,control,17.0,8,1,823.951005935669,823.9481449127197,801,1
223,control,18.0,8,1,811.2270832061768,811.2261295318604,1117,1
224,control,19.0,17,1,561.5549087524414,561.5520477294922,1054,1
225,control,20.0,8,1,779.670000076294,779.6690464019775,1135,1
226,control,21.0,8,0,658.0290794372559,658.0250263214111,1444,1
227,control,22.0,8,1,462.11886405944824,462.1157646179199,1256,1
228,control,23.0,8,1,757.4641704559326,757.4610710144043,987,1
229,control,24.0,8,0,714.2460346221924,714.245080947876,844,1
230,control,25.0,14,1,460.878849029541,460.8769416809082,1069,1
231,control,26.0,14,0,712.9626274108887,712.9616737365723,1404,1
232,control,27.0,8,1,656.702995300293,656.700849533081,1171,1
233,control,28.0,14,1,934.722900390625,934.7188472747803,1362,1
234,control,29.0,8,1,825.3068923950195,825.3047466278076,983,1
235,control,30.0,17,1,626.60813331604,626.600980758667,802,1
236,control,5.0,8,1,165.971040725708,459.5611095428467,1472,1
237,control,6.0,8,1,559.6640110015869,559.6609115600586,1036,1
238,control,7.0,8,1,558.678150177002,558.6743354797363,1053,1
239,control,8.0,8,1,98.33979606628418,466.7778015136719,1325,1
240,control,9.0,8,1,98.37102890014648,550.7340431213379,865,1
241,control,10.0,8,1,561.7270469665527,561.7260932922363,869,1
242,control,11.0,8,1,625.3662109375,625.3631114959717,1079,1
243,control,12.0,8,1,624.7129440307617,624.7100830078125,931,1
244,control,13.0,8,1,463.4358882904053,463.43398094177246,1250,1
245,control,14.0,8,1,758.4528923034668,758.4521770477295,1314,1
246,control,15.0,8,1,471.2703227996826,471.2650775909424,1125,1
247,control,16.0,8,1,825.4930973052979,825.4902362823486,1243,1
248,control,17.0,8,1,549.4959354400635,549.4949817657471,941,1
249,control,18.0,8,1,531.5120220184326,531.5101146697998,1224,1
250,control,19.0,15,1,1102.7121543884277,1102.7100086212158,1202,1
251,control,20.0,8,1,560.0230693817139,560.0199699401855,1352,1
252,control,21.0,11,1,526.5030860900879,526.4999866485596,1176,1
253,control,22.0,8,0,651.573896408081,651.5729427337646,1210,1
254,control,23.0,8,1,458.01615715026855,458.01401138305664,882,1
255,control,24.0,11,1,725.283145904541,725.2821922302246,1387,1
256,control,25.0,12,1,560.9049797058105,560.903787612915,1071,1
257,control,26.0,15,1,526.0720252990723,526.069164276123,1072,1
258,control,27.0,8,1,459.19084548950195,459.18893814086914,1153,1
259,control,28.0,12,1,647.697925567627,647.6969718933105,1168,1
260,control,29.0,8,1,645.9770202636719,645.9760665893555,1069,1
261,control,30.0,17,1,759.8190307617188,759.8168849945068,818,1
262,control,5.0,5,1,165.74883460998535,594.5649147033691,866,1
263,control,6.0,5,1,167.00220108032227,826.0281085968018,1310,1
264,control,7.0,5,1,164.86597061157227,494.45605278015137,1473,1
265,control,8.0,5,1,648.2248306274414,648.223876953125,1267,1
266,control,9.0,5,1,495.6820011138916,495.668888092041,1182,1
267,control,10.0,5,1,504.5969486236572,504.5943260192871,1014,1
268,control,11.0,5,1,495.5010414123535,495.49007415771484,1177,1
269,control,12.0,5,1,659.7208976745605,659.7146987915039,1009,1
270,control,13.0,5,1,755.5389404296875,755.5358409881592,1295,1
271,control,14.0,5,1,659.3217849731445,659.3210697174072,1273,1
272,control,15.0,5,1,728.2898426055908,728.2888889312744,911,1
273,control,16.0,5,1,647.9690074920654,647.968053817749,866,1
274,control,17.0,5,1,727.9148101806641,727.912187576294,1239,1
275,control,18.0,5,1,692.1219825744629,692.1191215515137,1029,1
276,control,19.0,15,1,650.1929759979248,650.1908302307129,988,1
277,control,20.0,5,0,778.026819229126,778.0249118804932,1024,1
278,control,21.0,11,1,662.7240180969238,662.7159118652344,933,1
279,control,22.0,11,0,495.0571060180664,495.0549602508545,1168,1
280,control,23.0,5,1,493.8778877258301,493.8769340515137,1413,1
281,control,24.0,11,1,593.8029289245605,593.8010215759277,945,1
282,control,25.0,12,1,431.76984786987305,431.7669868469238,1200,1
283,control,26.0,15,1,647.7010250091553,647.6998329162598,828,1
284,control,27.0,5,1,662.3580455780029,662.3539924621582,1269,1
285,control,28.0,12,1,825.7431983947754,825.7410526275635,906,1
286,control,29.0,5,0,665.8601760864258,665.856122970581,980,1
287,control,30.0,15,1,759.1500282287598,759.1469287872314,1454,1
288,control,5.0,5,1,67.78907775878906,494.3718910217285,1227,1
289,control,6.0,5,1,164.74008560180664,495.3441619873047,810,1
290,control,7.0,5,1,1251.8620491027832,1251.8599033355713,1334,1
291,control,8.0,5,1,98.54292869567871,438.7211799621582,1005,1
292,control,9.0,5,1,97.04923629760742,757.3070526123047,1003,1
293,control,10.0,5,1,495.1450824737549,495.1441287994385,1293,1
294,control,11.0,5,1,990.4890060424805,990.4870986938477,1265,1
295,control,12.0,5,1,814.687967300415,814.6862983703613,1076,1
296,control,13.0,5,1,715.7671451568604,715.7649993896484,1476,1
297,control,14.0,5,1,659.4607830047607,659.4586372375488,906,1
298,control,15.0,5,1,561.2890720367432,561.2869262695312,1227,1
299,control,16.0,5,0,824.4080543518066,824.4071006774902,1022,1
300,control,17.0,5,0,726.4719009399414,726.4697551727295,1289,1
301,control,18.0,5,1,590.6319618225098,590.630054473877,903,1
302,control,19.0,14,1,593.1551456451416,593.1541919708252,1370,1
303,control,20.0,8,1,670.8118915557861,670.8099842071533,1421,1
304,control,21.0,9,1,494.2343235015869,494.2281246185303,1346,1
305,control,22.0,14,1,429.4769763946533,429.4741153717041,853,1
306,control,23.0,5,0,825.7379531860352,825.7348537445068,1356,1
307,control,24.0,9,1,429.2900562286377,429.2879104614258,1078,1
308,control,25.0,11,1,426.3911247253418,426.3889789581299,1438,1
309,control,26.0,14,1,726.11403465271,726.1121273040771,1181,1
310,control,27.0,5,0,823.4460353851318,823.4431743621826,815,1
311,control,28.0,11,1,485.8081340789795,485.8081340789795,1042,1
312,control,29.0,8,1,559.2379570007324,559.237003326416,1052,1
313,control,30.0,15,1,488.92807960510254,488.92712593078613,1402,1
314,control,5.0,2,1,66.18690490722656,504.54187393188477,1340,1
315,control,6.0,2,0,163.88893127441406,1077.6598453521729,1366,1
316,control,7.0,2,0,165.7099723815918,1254.3878555297852,1469,1
317,control,8.0,2,1,921.8039512634277,921.7991828918457,1123,1
318,control,9.0,2,1,172.3017692565918,1424.6888160705566,1199,1
319,control,10.0,2,0,1474.379062652588,1474.376916885376,916,1
320,control,11.0,2,1,823.2378959655762,823.2338428497314,1138,1
321,control,12.0,2,1,657.149076461792,657.1471691131592,886,1
322,control,13.0,2,1,600.7509231567383,600.7499694824219,812,1
323,control,14.0,2,1,824.5711326599121,824.5658874511719,1196,1
324,control,15.0,2,1,659.44504737854,659.4419479370117,1139,1
325,control,16.0,8,1,670.9818840026855,670.9718704223633,1469,1
326,control,17.0,8,1,493.00312995910645,493.0000305175781,1290,1
327,control,18.0,2,0,746.8280792236328,746.8271255493164,1498,1
328,control,19.0,14,1,492.3839569091797,492.3820495605469,1399,1
329,control,20.0,8,1,495.14174461364746,495.14007568359375,911,1
330,control,21.0,9,1,493.5920238494873,493.5901165008545,978,1
331,control,22.0,14,1,827.589750289917,827.5856971740723,1110,1
332,control,23.0,8,1,493.99399757385254,493.988037109375,1337,1
333,control,24.0,9,1,493.10898780822754,493.1039810180664,1316,1
334,control,25.0,11,1,492.5370216369629,492.53392219543457,903,1
335,control,26.0,14,1,495.38588523864746,495.38469314575195,1113,1
336,control,27.0,8,1,592.1108722686768,592.1049118041992,823,1
337,control,28.0,11,1,593.9910411834717,593.9900875091553,1198,1
338,control,29.0,8,0,824.4731426239014,824.4712352752686,868,1
339,control,30.0,14,1,593.0228233337402,593.0218696594238,1082,1
340,control,5.0,2,1,164.22677040100098,592.8959846496582,1269,1
341,control,6.0,5,1,67.34585762023926,759.2220306396484,1310,1
342,control,7.0,5,1,166.11313819885254,494.71306800842285,951,1
343,control,8.0,2,1,723.419189453125,723.4129905700684,842,1
344,control,9.0,2,1,835.2611064910889,835.2560997009277,1033,1
345,control,10.0,5,1,418.9591407775879,418.9579486846924,1404,1
346,control,11.0,2,0,912.4879837036133,912.4870300292969,987,1
347,control,12.0,2,1,822.8459358215332,822.8437900543213,1092,1
348,control,13.0,2,0,581.902027130127,581.9010734558105,883,1
349,control,14.0,2,1,660.1810455322266,660.1731777191162,1498,1
350,control,15.0,2,0,496.40798568725586,496.4001178741455,1240,1
351,control,16.0,8,1,649.0507125854492,649.0497589111328,1293,1
352,control,17.0,8,1,494.91310119628906,494.9078559875488,1235,1
353,control,18.0,5,0,820.7869529724121,820.7790851593018,1146,1
354,control,19.0,12,1,593.195915222168,593.1918621063232,1453,1
355,control,20.0,6,1,593.1851863861084,593.1830406188965,1275,1
356,control,21.0,8,0,755.9161186218262,755.9151649475098,1440,1
357,control,22.0,12,1,483.59131813049316,483.59036445617676,948,1
358,control,23.0,8,1,912.4670028686523,912.4660491943359,1111,1
359,control,24.0,8,1,594.3279266357422,594.322919845581,1044,1
360,control,25.0,9,1,593.1708812713623,593.1656360626221,1493,1
361,control,26.0,13,0,757.6558589935303,757.6546669006348,918,1
362,control,27.0,8,1,833.4560394287109,833.4519863128662,1496,1
363,control,28.0,9,0,602.0557880401611,602.05078125,1487,1
364,control,29.0,9,1,667.0558452606201,667.0539379119873,903,1
365,control,30.0,14,1,825.2058029174805,825.2048492431641,810,1
366,control,5.0,1,1,155.53808212280273,1245.3792095184326,1401,1
367,control,6.0,5,1,165.94886779785156,495.3029155731201,1395,1
368,control,7.0,5,1,165.11178016662598,726.1917591094971,1103,1
369,control,8.0,1,0,165.2810573577881,831.2010765075684,1023,1
370,control,9.0,1,0,756.4659118652344,756.4611434936523,1036,1
371,control,10.0,5,1,823.30322265625,823.2932090759277,976,1
372,control,11.0,5,1,834.1069221496582,834.104061126709,813,1
373,control,12.0,1,1,823.5352039337158,823.530912399292,921,1
374,control,13.0,5,1,813.7679100036621,813.7669563293457,1060,1
375,control,14.0,1,0,727.6520729064941,727.6489734649658,1144,1
376,control,15.0,5,1,649.4622230529785,649.461030960083,1494,1
377,control,16.0,6,1,495.87321281433105,495.87011337280273,1386,1
378,control,17.0,6,1,484.19785499572754,484.1959476470947,978,1
379,control,18.0,8,1,761.7990970611572,761.7950439453125,1187,1
380,control,19.0,12,1,494.5979118347168,494.5969581604004,1500,1
381,control,20.0,6,1,658.3759784698486,658.3738327026367,1235,1
382,control,21.0,9,1,485.69297790527344,485.69226264953613,1296,1
383,control,22.0,12,1,565.2570724487305,565.2530193328857,1154,1
384,control,23.0,6,1,761.3518238067627,761.3468170166016,1072,1
385,control,24.0,8,1,759.0620517730713,759.0570449829102,1260,1
386,control,25.0,9,1,827.0542621612549,827.0511627197266,1465,1
387,control,26.0,14,1,604.0551662445068,604.0530204772949,1390,1
388,control,27.0,6,0,756.138801574707,756.1368942260742,1162,1
389,control,28.0,11,1,432.3709011077881,432.3687553405762,995,1
390,control,29.0,9,1,657.9461097717285,657.9420566558838,1404,1
1,quadbright,5.0,20,1,67.4748420715332,461.14492416381836,847,1
2,quadbright,6.0,20,1,130.19800186157227,428.2360076904297,1238,1
3,quadbright,7.0,20,1,133.28313827514648,428.4040927886963,1357,1
4,quadbright,8.0,20,1,98.42324256896973,394.54126358032227,1488,1
5,quadbright,9.0,20,1,537.5571250915527,537.553071975708,1460,1
6,quadbright,10.0,20,1,430.45616149902344,430.4511547088623,1033,1
7,quadbright,11.0,20,1,332.5986862182617,1057.1389198303223,1212,1
8,quadbright,12.0,20,1,363.12294006347656,363.12198638916016,868,1
9,quadbright,13.0,20,1,396.46100997924805,396.4529037475586,1398,1
10,quadbright,14.0,20,1,428.21717262268066,428.21335792541504,1097,1
11,quadbright,15.0,20,1,460.6640338897705,460.6630802154541,1189,1
12,quadbright,16.0,20,1,537.0879173278809,537.0817184448242,960,1
13,quadbright,17.0,20,1,460.7360363006592,460.73293685913086,1059,1
14,quadbright,18.0,20,1,493.44611167907715,493.44396591186523,810,1
15,quadbright,19.0,20,1,373.2738494873047,373.26979637145996,957,1
16,quadbright,20.0,20,1,418.39003562927246,418.38884353637695,1078,1
17,quadbright,21.0,20,1,459.98191833496094,459.9771499633789,960,1
18,quadbright,22.0,20,1,524.0068435668945,524.0039825439453,1233,1
19,quadbright,23.0,20,1,494.01211738586426,494.01116371154785,1096,1
20,quadbright,24.0,20,1,384.5202922821045,384.5202922821045,838,1
21,quadbright,25.0,20,1,428.41076850891113,428.4067153930664,1300,1
22,quadbright,26.0,20,1,362.51115798950195,362.5071048736572,957,1
23,quadbright,27.0,20,1,496.8380928039551,496.83403968811035,872,1
24,quadbright,28.0,20,1,459.43498611450195,459.4259262084961,1315,1
25,quadbright,29.0,20,1,460.7260227203369,460.7219696044922,993,1
26,quadbright,30.0,20,1,494.3099021911621,494.3077564239502,1246,1
27,quadbright,5.0,20,1,133.18395614624023,459.9800109863281,1368,1
28,quadbright,6.0,20,1,99.82585906982422,395.6449031829834,943,1
29,quadbright,7.0,20,1,100.88706016540527,396.26216888427734,1489,1
30,quadbright,8.0,20,1,295.52388191223145,428.8220405578613,1115,1
31,quadbright,9.0,20,1,593.75,593.7440395355225,1407,1
32,quadbright,10.0,20,1,461.8349075317383,461.82894706726074,1333,1
33,quadbright,11.0,20,1,460.73389053344727,460.72888374328613,1352,1
34,quadbright,12.0,20,1,328.03893089294434,328.0367851257324,1465,1
35,quadbright,13.0,20,1,462.12196350097656,462.11886405944824,1065,1
36,quadbright,14.0,20,1,449.57733154296875,449.57637786865234,1470,1
37,quadbright,15.0,20,1,1120.0048923492432,1120.002031326294,1079,1
38,quadbright,16.0,20,0,363.01302909851074,363.01207542419434,1311,1
39,quadbright,17.0,20,1,394.5729732513428,394.57201957702637,951,1
40,quadbright,18.0,20,1,538.0210876464844,538.0191802978516,1155,1
41,quadbright,19.0,20,1,418.32900047302246,418.32804679870605,910,1
42,quadbright,20.0,20,1,528.4888744354248,528.4817218780518,1230,1
43,quadbright,21.0,20,1,526.2589454650879,526.2489318847656,1219,1
44,quadbright,22.0,20,1,727.3938655853271,727.3869514465332,1083,1
45,quadbright,23.0,20,1,458.6939811706543,458.68396759033203,1462,1
46,quadbright,24.0,20,1,354.0971279144287,354.0961742401123,1424,1
47,quadbright,25.0,20,1,615.8909797668457,615.8897876739502,1441,1
48,quadbright,26.0,20,1,593.8029289245605,593.8019752502441,1188,1
49,quadbright,27.0,20,1,369.04191970825195,369.0381050109863,948,1
50,quadbright,28.0,20,1,397.66812324523926,397.66693115234375,1222,1
51,quadbright,29.0,20,0,360.46719551086426,360.46528816223145,985,1
52,quadbright,30.0,20,1,459.766149520874,459.7620964050293,1344,1
53,quadbright,5.0,17,1,66.26605987548828,363.77596855163574,1274,1
54,quadbright,6.0,17,1,132.74502754211426,429.36205863952637,1235,1
55,quadbright,7.0,17,1,517.9951190948486,517.9951190948486,888,1
56,quadbright,8.0,17,1,363.0106449127197,363.0096912384033,982,1
57,quadbright,9.0,17,1,128.7209987640381,364.3667697906494,1343,1
58,quadbright,10.0,17,1,417.01698303222656,417.01602935791016,926,1
59,quadbright,11.0,17,1,461.57169342041016,461.57097816467285,933,1
60,quadbright,12.0,17,1,360.75592041015625,360.7518672943115,1419,1
61,quadbright,13.0,17,1,988.0049228668213,987.9970550537109,939,1
62,quadbright,14.0,17,1,527.8787612915039,527.8780460357666,850,1
63,quadbright,15.0,17,1,450.8039951324463,450.8020877838135,844,1
64,quadbright,16.0,23,1,429.57592010498047,429.57186698913574,946,1
65,quadbright,17.0,17,1,459.79809761047363,459.7949981689453,1467,1
66,quadbright,18.0,17,1,451.43699645996094,451.43604278564453,1210,1
67,quadbright,19.0,17,1,592.9200649261475,592.9138660430908,1284,1
68,quadbright,20.0,17,1,394.5181369781494,394.517183303833,1442,1
69,quadbright,21.0,17,1,351.5610694885254,351.5589237213135,1253,1
70,quadbright,22.0,17,1,594.5279598236084,594.5267677307129,808,1
71,quadbright,23.0,17,1,591.6030406951904,591.6011333465576,1194,1
72,quadbright,24.0,17,1,462.28480339050293,462.2821807861328,952,1
73,quadbright,25.0,17,1,1219.6218967437744,1219.6197509765625,1075,1
74,quadbright,26.0,17,1,594.1638946533203,594.1588878631592,1460,1
75,quadbright,27.0,17,1,526.2949466705322,526.2918472290039,1021,1
76,quadbright,28.0,17,1,682.6732158660889,682.6722621917725,1129,1
77,quadbright,29.0,23,1,515.5179500579834,515.5172348022461,1415,1
78,quadbright,30.0,17,1,1187.0090961456299,1187.002182006836,1295,1
79,quadbright,5.0,17,1,98.17171096801758,393.4340476989746,1465,1
80,quadbright,6.0,17,1,164.6740436553955,460.75892448425293,1048,1
81,quadbright,7.0,17,1,526.451826095581,526.4499187469482,1132,1
82,quadbright,8.0,17,1,98.30808639526367,395.064115524292,921,1
83,quadbright,9.0,17,1,429.10313606262207,429.10099029541016,1103,1
84,quadbright,10.0,17,1,66.8179988861084,361.4470958709717,914,1
85,quadbright,11.0,17,1,461.56787872314453,461.5669250488281,1045,1
86,quadbright,12.0,17,1,395.19524574279785,395.1900005340576,1293,1
87,quadbright,13.0,17,1,615.1361465454102,615.1351928710938,1496,1
88,quadbright,14.0,17,1,516.4170265197754,516.416072845459,1000,1
89,quadbright,15.0,17,1,464.46967124938965,464.46800231933594,841,1
90,quadbright,16.0,23,1,526.4990329742432,526.4930725097656,1028,1
91,quadbright,17.0,17,1,458.6026668548584,458.59575271606445,1472,1
92,quadbright,18.0,17,1,428.678035736084,428.67588996887207,1213,1
93,quadbright,19.0,17,1,461.4701271057129,461.4689350128174,1326,1
94,quadbright,20.0,17,1,515.8288478851318,515.8281326293945,1017,1
95,quadbright,21.0,17,1,462.0401859283447,462.0380401611328,1159,1
96,quadbright,22.0,17,1,461.81225776672363,461.8082046508789,944,1
97,quadbright,23.0,17,1,757.8911781311035,757.8911781311035,1432,1
98,quadbright,24.0,17,1,536.2331867218018,536.2300872802734,1004,1
99,quadbright,25.0,17,1,460.4310989379883,460.42490005493164,1236,1
100,quadbright,26.0,17,1,459.49578285217285,459.49387550354004,1189,1
101,quadbright,27.0,17,1,756.4878463745117,756.4859390258789,991,1
102,quadbright,28.0,17,1,913.4690761566162,913.4678840637207,1306,1
103,quadbright,29.0,23,1,628.8988590240479,628.8959980010986,1091,1
104,quadbright,30.0,17,1,988.5838031768799,988.5828495025635,1451,1
105,quadbright,5.0,14,1,133.28981399536133,495.6707954406738,1108,1
106,quadbright,6.0,14,1,199.53298568725586,505.72991371154785,1499,1
107,quadbright,7.0,14,1,517.0450210571289,517.0450210571289,1347,1
108,quadbright,8.0,14,1,66.14899635314941,365.3700351715088,849,1
109,quadbright,9.0,14,1,65.90676307678223,360.4309558868408,1135,1
110,quadbright,10.0,14,1,493.0891990661621,493.0860996246338,1239,1
111,quadbright,11.0,14,1,403.0652046203613,403.0568599700928,924,1
112,quadbright,12.0,14,1,727.7891635894775,727.787971496582,970,1
113,quadbright,13.0,14,1,392.50779151916504,392.5049304962158,1205,1
114,quadbright,14.0,14,1,726.2921333312988,726.2849807739258,1400,1
115,quadbright,15.0,14,1,1285.4609489440918,1285.4552268981934,1214,1
116,quadbright,16.0,21,1,2199.4309425354004,2199.4287967681885,1170,1
117,quadbright,17.0,14,1,593.3520793914795,593.3489799499512,1078,1
118,quadbright,18.0,14,1,494.09008026123047,494.09008026123047,1043,1
119,quadbright,19.0,14,1,495.38326263427734,495.3789710998535,1228,1
120,quadbright,20.0,14,1,484.4248294830322,484.4238758087158,932,1
121,quadbright,21.0,14,0,404.00218963623047,403.9943218231201,914,1
122,quadbright,22.0,14,1,594.1989421844482,594.1979885101318,1457,1
123,quadbright,23.0,14,1,526.0610580444336,526.0558128356934,962,1
124,quadbright,24.0,14,1,1220.0567722320557,1220.0510501861572,1096,1
125,quadbright,25.0,14,1,594.527006149292,594.5248603820801,984,1
126,quadbright,26.0,14,1,395.05887031555176,395.0536251068115,1016,1
127,quadbright,27.0,14,1,691.338062286377,691.3301944732666,1028,1
128,quadbright,28.0,14,1,1693.7098503112793,1693.7048435211182,1191,1
129,quadbright,29.0,21,1,990.4332160949707,990.4289245605469,1374,1
130,quadbright,30.0,14,0,902.9312133789062,902.9293060302734,1440,1
131,quadbright,5.0,14,1,100.63409805297852,496.02198600769043,1113,1
132,quadbright,6.0,14,1,91.88199043273926,483.98685455322266,1071,1
133,quadbright,7.0,14,1,100.81982612609863,499.8509883880615,1119,1
134,quadbright,8.0,14,1,496.45280838012695,496.45090103149414,880,1
135,quadbright,9.0,14,1,493.81399154663086,493.81017684936523,1429,1
136,quadbright,10.0,14,1,593.1651592254639,593.163013458252,992,1
137,quadbright,11.0,14,1,393.54586601257324,393.5389518737793,898,1
138,quadbright,12.0,14,1,395.5268859863281,395.51782608032227,1168,1
139,quadbright,13.0,14,1,395.52879333496094,395.5249786376953,1229,1
140,quadbright,14.0,14,1,624.7620582580566,624.7580051422119,1379,1
141,quadbright,15.0,14,1,526.0059833526611,526.0007381439209,1431,1
142,quadbright,16.0,21,1,526.8549919128418,526.8528461456299,1449,1
143,quadbright,17.0,14,1,494.138240814209,494.13609504699707,1115,1
144,quadbright,18.0,14,1,494.88377571105957,494.88091468811035,1045,1
145,quadbright,19.0,14,1,1376.3909339904785,1376.389980316162,1287,1
146,quadbright,20.0,14,1,492.79189109802246,492.7868843078613,935,1
147,quadbright,21.0,17,1,383.90278816223145,383.90183448791504,1066,1
148,quadbright,22.0,14,1,793.7929630279541,793.7920093536377,837,1
149,quadbright,23.0,14,1,591.4490222930908,591.4459228515625,992,1
150,quadbright,24.0,14,1,484.42578315734863,484.4248294830322,1274,1
151,quadbright,25.0,14,1,495.1181411743164,495.1171875,895,1
152,quadbright,26.0,14,1,504.30893898010254,504.3058395385742,904,1
153,quadbright,27.0,14,0,813.403844833374,813.4028911590576,1465,1
154,quadbright,28.0,14,1,790.5721664428711,790.5700206756592,1086,1
155,quadbright,29.0,21,1,592.4131870269775,592.4103260040283,1183,1
156,quadbright,30.0,17,0,823.1878280639648,823.185920715332,1053,1
157,quadbright,5.0,11,1,97.0156192779541,428.7848472595215,988,1
158,quadbright,6.0,11,1,100.88109970092773,528.1651020050049,1018,1
159,quadbright,7.0,11,1,98.82783889770508,525.3477096557617,1198,1
160,quadbright,8.0,11,1,97.57471084594727,525.3229141235352,1325,1
161,quadbright,9.0,11,1,98.47807884216309,392.54117012023926,1324,1
162,quadbright,10.0,11,1,483.9918613433838,483.9909076690674,1074,1
163,quadbright,11.0,11,1,396.5282440185547,396.52419090270996,952,1
164,quadbright,12.0,11,1,394.79875564575195,394.79780197143555,844,1
165,quadbright,13.0,11,1,393.4211730957031,393.4190273284912,899,1
166,quadbright,14.0,11,1,592.073917388916,592.069149017334,1297,1
167,quadbright,15.0,11,1,396.43096923828125,396.42810821533203,1268,1
168,quadbright,16.0,20,1,593.2750701904297,593.2719707489014,802,1
169,quadbright,17.0,11,1,592.8709506988525,592.864990234375,829,1
170,quadbright,18.0,11,1,625.6411075592041,625.6330013275146,1385,1
171,quadbright,19.0,11,1,504.824161529541,504.8210620880127,1066,1
172,quadbright,20.0,11,1,492.5391674041748,492.5382137298584,1229,1
173,quadbright,21.0,17,1,583.4522247314453,583.4510326385498,822,1
174,quadbright,22.0,11,1,1204.827070236206,1204.8239707946777,1462,1
175,quadbright,23.0,11,1,690.8011436462402,690.7989978790283,1124,1
176,quadbright,24.0,11,1,889.4331455230713,889.4212245941162,938,1
177,quadbright,25.0,11,1,879.4910907745361,879.4898986816406,1269,1
178,quadbright,26.0,11,1,591.5141105651855,591.5100574493408,1225,1
179,quadbright,27.0,17,1,581.2740325927734,581.273078918457,1322,1
180,quadbright,28.0,11,1,690.3910636901855,690.385103225708,877,1
181,quadbright,29.0,20,0,1174.7989654541016,1174.7980117797852,882,1
182,quadbright,30.0,20,0,701.7331123352051,701.7300128936768,1184,1
183,quadbright,5.0,11,1,99.37715530395508,384.3989372253418,857,1
184,quadbright,6.0,11,1,198.11606407165527,496.98925018310547,1066,1
185,quadbright,7.0,11,1,185.40430068969727,481.73999786376953,1481,1
186,quadbright,8.0,11,1,99.7769832611084,560.1520538330078,977,1
187,quadbright,9.0,11,1,98.68597984313965,459.60092544555664,1100,1
188,quadbright,10.0,11,1,549.9022006988525,549.901008605957,1140,1
189,quadbright,11.0,11,0,1020.8330154418945,1020.8230018615723,1017,1
190,quadbright,12.0,11,1,459.78808403015137,459.78617668151855,1204,1
191,quadbright,13.0,11,0,1219.803810119629,1219.796895980835,1065,1
192,quadbright,14.0,11,0,921.9250679016113,921.9231605529785,852,1
193,quadbright,15.0,11,0,759.8590850830078,759.8590850830078,1360,1
194,quadbright,16.0,20,1,558.9170455932617,558.9127540588379,1332,1
195,quadbright,17.0,11,0,823.6942291259766,823.6911296844482,1452,1
196,quadbright,18.0,11,1,626.8751621246338,626.8742084503174,1442,1
197,quadbright,19.0,11,1,837.0327949523926,837.0308876037598,1057,1
198,quadbright,20.0,11,1,530.019998550415,530.0188064575195,1303,1
199,quadbright,21.0,15,1,557.5149059295654,557.5098991394043,947,1
200,quadbright,22.0,11,1,758.7189674377441,758.7177753448486,860,1
201,quadbright,23.0,11,0,815.1428699493408,815.1419162750244,1110,1
202,quadbright,24.0,11,1,727.3070812225342,727.3049354553223,1082,1
203,quadbright,25.0,11,0,626.2447834014893,626.2400150299072,1495,1
204,quadbright,26.0,11,1,751.5559196472168,751.5547275543213,983,1
205,quadbright,27.0,17,1,933.7379932403564,933.7339401245117,1193,1
206,quadbright,28.0,11,1,822.7860927581787,822.7829933166504,830,1
207,quadbright,29.0,21,0,2208.275079727173,2208.2741260528564,859,1
208,quadbright,30.0,23,1,1119.4939613342285,1119.4870471954346,826,1
209,quadbright,5.0,8,1,99.00069236755371,461.4589214324951,887,1
210,quadbright,6.0,8,1,66.55097007751465,362.50901222229004,907,1
211,quadbright,7.0,8,1,288.5417938232422,460.2370262145996,1029,1
212,quadbright,8.0,8,1,455.3108215332031,455.3089141845703,1269,1
213,quadbright,9.0,8,1,460.9332084655762,460.92915534973145,857,1
214,quadbright,10.0,8,1,660.8779430389404,660.8738899230957,1322,1
215,quadbright,11.0,14,1,560.3041648864746,560.3029727935791,1169,1
216,quadbright,12.0,8,0,723.5918045043945,723.5889434814453,1032,1
217,quadbright,13.0,14,1,429.2130470275879,429.2120933532715,1495,1
218,quadbright,14.0,14,1,428.61175537109375,428.6079406738281,1183,1
219,quadbright,15.0,14,1,570.8060264587402,570.8038806915283,1255,1
220,quadbright,16.0,18,1,421.184778213501,421.1840629577637,1019,1
221,quadbright,17.0,14,1,462.6479148864746,462.6429080963135,1163,1
222,quadbright,18.0,8,1,824.8379230499268,824.8357772827148,1168,1
223,quadbright,19.0,8,1,1132.8530311584473,1132.8470706939697,1051,1
224,quadbright,20.0,8,0,1122.1129894256592,1122.1098899841309,1469,1
225,quadbright,21.0,15,1,659.1789722442627,659.1751575469971,1156,1
226,quadbright,22.0,8,1,764.1861438751221,764.1820907592773,1258,1
227,quadbright,23.0,14,1,659.7318649291992,659.7230434417725,1242,1
228,quadbright,24.0,8,1,924.5026111602783,924.4978427886963,986,1
229,quadbright,25.0,14,1,550.360918045044,550.3599643707275,1292,1
230,quadbright,26.0,8,1,922.2280979156494,922.2259521484375,1355,1
231,quadbright,27.0,15,1,725.0490188598633,725.0471115112305,902,1
232,quadbright,28.0,8,0,825.4289627075195,825.4210948944092,815,1
233,quadbright,29.0,23,1,714.195966720581,714.1952514648438,899,1
234,quadbright,30.0,23,0,1188.8439655303955,1188.843011856079,1324,1
235,quadbright,5.0,8,1,100.13008117675781,461.0128402709961,828,1
236,quadbright,6.0,8,1,99.29609298706055,461.8840217590332,886,1
237,quadbright,7.0,8,1,99.13492202758789,459.46383476257324,1466,1
238,quadbright,8.0,8,1,550.3101348876953,550.3089427947998,851,1
239,quadbright,9.0,8,1,263.3681297302246,462.19897270202637,1048,1
240,quadbright,10.0,8,1,561.3348484039307,561.3322257995605,1004,1
241,quadbright,11.0,14,1,658.782958984375,658.778190612793,1324,1
242,quadbright,12.0,11,1,459.5801830291748,459.5780372619629,1428,1
243,quadbright,13.0,14,1,535.7348918914795,535.7317924499512,1102,1
244,quadbright,14.0,14,1,460.3419303894043,460.3400230407715,1374,1
245,quadbright,15.0,14,1,562.1790885925293,562.1738433837891,1466,1
246,quadbright,16.0,18,1,726.7320156097412,726.7289161682129,874,1
247,quadbright,17.0,14,1,561.9027614593506,561.8987083435059,1240,1
248,quadbright,18.0,8,1,560.1987838745117,560.1949691772461,1365,1
249,quadbright,19.0,8,1,463.4871482849121,463.4850025177002,1414,1
250,quadbright,20.0,11,1,660.383939743042,660.3820323944092,965,1
251,quadbright,21.0,14,1,460.53290367126465,460.53004264831543,1248,1
252,quadbright,22.0,8,1,923.0072498321533,923.0031967163086,877,1
253,quadbright,23.0,14,1,525.7782936096191,525.7761478424072,889,1
254,quadbright,24.0,8,1,726.3000011444092,726.2990474700928,1449,1
255,quadbright,25.0,14,0,647.5958824157715,647.5939750671387,1033,1
256,quadbright,26.0,8,0,922.3957061767578,922.3909378051758,1337,1
257,quadbright,27.0,15,0,725.4772186279297,725.4762649536133,1279,1
258,quadbright,28.0,11,0,755.0840377807617,755.0818920135498,959,1
259,quadbright,29.0,23,1,461.90595626831055,461.90500259399414,1331,1
260,quadbright,30.0,24,0,656.663179397583,656.6600799560547,1037,1
261,quadbright,5.0,5,1,98.46901893615723,449.34797286987305,994,1
262,quadbright,6.0,5,1,100.53491592407227,561.4969730377197,1300,1
263,quadbright,7.0,5,1,196.71082496643066,560.2478981018066,804,1
264,quadbright,8.0,5,1,101.06587409973145,659.5561504364014,1346,1
265,quadbright,9.0,5,1,186.7849826812744,714.4391536712646,971,1
266,quadbright,10.0,5,1,727.7989387512207,727.7967929840088,1112,1
267,quadbright,11.0,12,1,560.1768493652344,560.1756572723389,1243,1
268,quadbright,12.0,11,1,532.4468612670898,532.4440002441406,1023,1
269,quadbright,13.0,12,0,830.5261135101318,830.5230140686035,1098,1
270,quadbright,14.0,12,1,461.64608001708984,461.64512634277344,975,1
271,quadbright,15.0,12,1,528.6328792572021,528.6309719085693,1187,1
272,quadbright,16.0,17,1,558.4561824798584,558.4518909454346,1314,1
273,quadbright,17.0,12,1,567.6262378692627,567.6202774047852,1248,1
274,quadbright,18.0,5,0,826.0769844055176,826.0641098022461,1247,1
275,quadbright,19.0,5,0,647.7386951446533,647.737979888916,1394,1
276,quadbright,20.0,11,1,524.4379043579102,524.4307518005371,1287,1
277,quadbright,21.0,14,1,636.4619731903076,636.4579200744629,842,1
278,quadbright,22.0,5,0,1356.5518856048584,1356.54878616333,1000,1
279,quadbright,23.0,12,1,725.1508235931396,725.147008895874,1467,1
280,quadbright,24.0,5,0,823.3308792114258,823.3258724212646,876,1
281,quadbright,25.0,15,1,461.09485626220703,461.0941410064697,1359,1
282,quadbright,26.0,11,0,715.8122062683105,715.811014175415,1129,1
283,quadbright,27.0,17,1,461.8649482727051,461.86375617980957,851,1
284,quadbright,28.0,14,1,826.1909484863281,826.1849880218506,1225,1
285,quadbright,29.0,22,1,824.8171806335449,824.815034866333,1267,1
286,quadbright,5.0,5,1,98.5417366027832,662.5809669494629,1378,1
287,quadbright,6.0,5,0,166.4440631866455,998.8961219787598,805,1
288,quadbright,7.0,5,1,221.12679481506348,881.5820217132568,1306,1
289,quadbright,8.0,5,1,164.5987033843994,823.5416412353516,1144,1
290,quadbright,9.0,5,0,649.3709087371826,649.3699550628662,813,1
291,quadbright,10.0,5,0,758.7249279022217,758.7239742279053,1206,1
292,quadbright,11.0,12,1,669.5139408111572,669.5077419281006,1408,1
293,quadbright,12.0,9,1,834.9530696868896,834.9509239196777,1127,1
294,quadbright,13.0,14,1,396.0528373718262,396.05188369750977,1327,1
295,quadbright,14.0,12,1,493.01981925964355,493.01767349243164,1159,1
296,quadbright,15.0,12,1,494.37808990478516,494.37713623046875,850,1
297,quadbright,16.0,17,1,428.1001091003418,428.09391021728516,1009,1
298,quadbright,17.0,12,1,484.450101852417,484.450101852417,1404,1
299,quadbright,18.0,8,1,716.317892074585,716.3169384002686,825,1
300,quadbright,19.0,8,0,813.9290809631348,813.9281272888184,1125,1
301,quadbright,20.0,9,1,428.9259910583496,428.9250373840332,878,1
302,quadbright,21.0,12,1,494.600772857666,494.5991039276123,963,1
303,quadbright,22.0,8,1,649.7359275817871,649.7349739074707,1123,1
304,quadbright,23.0,12,1,654.0498733520508,654.0486812591553,1398,1
305,quadbright,24.0,8,0,892.7841186523438,892.7810192108154,1157,1
306,quadbright,25.0,15,1,494.7829246520996,494.7819709777832,893,1
307,quadbright,26.0,14,1,594.994068145752,594.9921607971191,1232,1
308,quadbright,27.0,17,1,585.1061344146729,585.1051807403564,1300,1
309,quadbright,28.0,14,1,660.1159572601318,660.1150035858154,956,1
310,quadbright,29.0,22,1,756.7789554595947,756.7729949951172,875,1
311,quadbright,5.0,2,1,154.65593338012695,914.283037185669,1427,1
312,quadbright,6.0,8,1,166.57209396362305,493.4830665588379,1499,1
313,quadbright,7.0,2,1,992.4740791320801,992.4721717834473,1002,1
314,quadbright,8.0,2,1,497.9698657989502,497.9667663574219,1103,1
315,quadbright,9.0,8,1,329.9570083618164,329.9551010131836,1476,1
316,quadbright,10.0,8,1,428.4060001373291,428.4050464630127,906,1
317,quadbright,11.0,11,1,505.0668716430664,505.0649642944336,864,1
318,quadbright,12.0,9,1,494.7819709777832,494.77696418762207,1256,1
319,quadbright,13.0,14,1,494.22526359558105,494.22216415405273,1093,1
320,quadbright,14.0,11,1,494.64917182922363,494.6479797363281,1206,1
321,quadbright,15.0,11,1,495.2099323272705,495.2089786529541,1349,1
322,quadbright,16.0,15,1,503.31997871398926,503.31592559814453,1028,1
323,quadbright,17.0,11,1,494.8720932006836,494.8699474334717,1310,1
324,quadbright,18.0,8,1,755.6560039520264,755.6519508361816,970,1
325,quadbright,19.0,11,1,658.9770317077637,658.9720249176025,910,1
326,quadbright,20.0,9,1,493.84307861328125,493.84117126464844,1245,1
327,quadbright,21.0,12,1,657.4897766113281,657.4869155883789,888,1
328,quadbright,22.0,8,1,822.667121887207,822.6580619812012,1130,1
329,quadbright,23.0,11,1,717.1499729156494,717.1487808227539,1322,1
330,quadbright,24.0,11,1,747.1990585327148,747.1981048583984,1046,1
331,quadbright,25.0,14,1,659.4600677490234,659.4581604003906,1194,1
332,quadbright,26.0,14,1,658.4389209747314,658.4351062774658,1217,1
333,quadbright,27.0,16,1,492.80381202697754,492.7978515625,928,1
334,quadbright,28.0,12,1,660.1579189300537,660.1488590240479,959,1
335,quadbright,29.0,21,1,724.6308326721191,724.6227264404297,1480,1
336,quadbright,5.0,2,1,166.215181350708,988.9981746673584,1092,1
337,quadbright,6.0,8,1,65.81783294677734,496.6580867767334,858,1
338,quadbright,7.0,2,0,66.46895408630371,921.9949245452881,1138,1
339,quadbright,8.0,2,0,164.60204124450684,758.3580017089844,897,1
340,quadbright,9.0,8,1,67.0018196105957,430.87100982666016,1192,1
341,quadbright,10.0,8,1,493.96491050720215,493.96395683288574,1202,1
342,quadbright,11.0,11,1,493.95298957824707,493.95203590393066,1361,1
343,quadbright,12.0,8,1,889.6622657775879,889.6570205688477,943,1
344,quadbright,13.0,13,1,658.0989360809326,658.0958366394043,1141,1
345,quadbright,14.0,11,1,426.77783966064453,426.76782608032227,1128,1
346,quadbright,15.0,11,1,922.0471382141113,922.0430850982666,904,1
347,quadbright,16.0,15,1,428.0822277069092,428.07912826538086,1349,1
348,quadbright,17.0,11,1,757.4646472930908,757.4639320373535,1076,1
349,quadbright,18.0,6,1,581.089973449707,581.0890197753906,936,1
350,quadbright,19.0,11,1,769.2790031433105,769.2749500274658,1126,1
351,quadbright,20.0,8,1,601.9561290740967,601.94993019104,865,1
352,quadbright,21.0,11,1,440.3572082519531,440.3493404388428,1482,1
353,quadbright,22.0,6,0,561.1238479614258,561.1228942871094,1095,1
354,quadbright,23.0,11,1,559.2749118804932,559.2739582061768,960,1
355,quadbright,24.0,11,1,492.1228885650635,492.11907386779785,1102,1
356,quadbright,25.0,14,1,660.966157913208,660.9640121459961,964,1
357,quadbright,26.0,12,1,988.7039661407471,988.7018203735352,1151,1
358,quadbright,27.0,16,0,756.2339305877686,756.2291622161865,1042,1
359,quadbright,28.0,12,1,757.5271129608154,757.5230598449707,880,1
360,quadbright,29.0,21,1,758.6202621459961,758.6193084716797,987,1
361,quadbright,5.0,1,0,167.67191886901855,1254.331111907959,1237,1
362,quadbright,6.0,6,1,65.77014923095703,428.50613594055176,1113,1
363,quadbright,7.0,5,1,65.83309173583984,657.0367813110352,1241,1
364,quadbright,8.0,5,1,165.37022590637207,428.53617668151855,1349,1
365,quadbright,9.0,6,1,659.7280502319336,659.724235534668,1026,1
366,quadbright,10.0,6,0,662.9648208618164,662.9559993743896,1475,1
367,quadbright,11.0,9,1,658.2541465759277,658.2479476928711,1207,1
368,quadbright,12.0,8,1,493.89004707336426,493.88790130615234,1273,1
369,quadbright,13.0,13,0,822.7148056030273,822.7128982543945,1063,1
370,quadbright,14.0,9,0,669.1849231719971,669.180154800415,1331,1
371,quadbright,15.0,9,0,771.5198993682861,771.5167999267578,961,1
372,quadbright,16.0,14,1,596.0860252380371,596.0838794708252,1400,1
373,quadbright,17.0,9,1,658.5547924041748,658.5531234741211,1140,1
374,quadbright,18.0,6,1,768.3188915252686,768.3160305023193,1338,1
375,quadbright,19.0,9,1,590.9838676452637,590.9790992736816,1192,1
376,quadbright,20.0,8,1,483.02292823791504,483.02197456359863,1208,1
377,quadbright,21.0,11,1,491.52207374572754,491.5180206298828,1317,1
378,quadbright,22.0,8,0,504.72497940063477,504.71997261047363,1081,1
379,quadbright,23.0,9,0,581.9294452667236,581.9282531738281,931,1
380,quadbright,24.0,9,1,1094.085931777954,1094.0837860107422,1136,1
381,quadbright,25.0,13,1,675.1041412353516,675.1019954681396,1192,1
382,quadbright,26.0,12,0,592.3628807067871,592.3569202423096,1312,1
383,quadbright,27.0,17,1,650.3312587738037,650.3291130065918,976,1
384,quadbright,28.0,11,1,1255.4728984832764,1255.4707527160645,1430,1
385,quadbright,29.0,20,1,591.9182300567627,591.9160842895508,991,1
