trial,condition,eccentricity,magnitude,correct,srt_ms,keyboard_rt_ms,pre_change_ms,valid
1,control,5.0,20,1,493.20125579833984,493.1981563568115,1206,1
2,control,6.0,20,1,66.37811660766602,363.1579875946045,1222,1
3,control,7.0,20,1,65.80018997192383,361.1772060394287,1465,1
4,control,8.0,20,1,65.6430721282959,1078.0842304229736,977,1
5,control,9.0,20,1,362.13111877441406,362.12801933288574,1215,1
6,control,10.0,20,1,294.62599754333496,294.62122917175293,1259,1
7,control,11.0,20,1,362.1959686279297,362.18976974487305,1053,1
8,control,12.0,20,1,295.71008682250977,295.70603370666504,1217,1
9,control,13.0,20,1,395.050048828125,395.0338363647461,1467,1
10,control,14.0,20,1,462.6891613006592,462.68439292907715,818,1
11,control,15.0,20,1,299.1788387298584,299.177885055542,1296,1
12,control,16.0,20,1,362.3309135437012,362.3218536376953,1122,1
13,control,17.0,20,1,428.7762641906738,428.7753105163574,1213,1
14,control,18.0,20,1,391.8309211730957,391.8290138244629,814,1
15,control,19.0,20,1,362.7619743347168,362.7610206604004,1099,1
16,control,20.0,20,1,430.07516860961914,430.0680160522461,1003,1
17,control,21.0,20,1,327.63123512268066,327.6240825653076,1316,1
18,control,22.0,20,1,370.0249195098877,370.01895904541016,1497,1
19,control,23.0,20,1,327.46410369873047,327.45909690856934,889,1
20,control,24.0,20,1,364.98522758483887,364.98212814331055,1022,1
21,control,25.0,20,1,361.91606521606445,361.91415786743164,870,1
22,control,26.0,20,1,368.5271739959717,368.52312088012695,1345,1
23,control,27.0,20,1,461.65919303894043,461.6580009460449,1095,1
24,control,28.0,20,1,459.7311019897461,459.72514152526855,1419,1
25,control,29.0,20,1,594.8188304901123,594.8176383972168,1418,1
26,control,30.0,20,1,427.78801918029785,427.7830123901367,961,1
27,control,5.0,20,1,98.36816787719727,294.7702407836914,1039,1
28,control,6.0,20,1,98.99687767028809,296.47088050842285,1483,1
29,control,7.0,20,1,99.56717491149902,329.56790924072266,1197,1
30,control,8.0,20,1,164.72911834716797,297.8658676147461,911,1
31,control,9.0,20,1,351.8860340118408,351.8850803375244,1187,1
32,control,10.0,20,1,100.01873970031738,329.941987991333,1483,1
33,control,11.0,20,1,361.7138862609863,361.7069721221924,1209,1
34,control,12.0,20,1,428.9431571960449,428.9419651031494,1264,1
35,control,13.0,20,1,426.9580841064453,426.9540309906006,1015,1
36,control,14.0,20,1,427.7167320251465,427.7157783508301,1222,1
37,control,15.0,20,1,393.77403259277344,393.7699794769287,805,1
38,control,16.0,20,1,394.9449062347412,394.93393898010254,1391,1
39,control,17.0,20,1,360.88085174560547,360.87608337402344,1304,1
40,control,18.0,20,1,331.12072944641113,331.10880851745605,1085,1
41,control,19.0,20,1,361.1009120941162,361.0978126525879,1351,1
42,control,20.0,20,1,428.7729263305664,428.7707805633545,1309,1
43,control,21.0,20,1,400.6330966949463,400.6309509277344,1098,1
44,control,22.0,20,1,362.699031829834,362.6980781555176,1240,1
45,control,23.0,20,1,361.7110252380371,361.70220375061035,1363,1
46,control,24.0,20,1,395.3731060028076,395.369291305542,948,1
47,control,25.0,20,1,321.0749626159668,321.0740089416504,1434,1
48,control,26.0,20,1,464.16401863098145,464.16306495666504,988,1
49,control,27.0,20,1,418.3337688446045,418.3337688446045,1418,1
50,control,28.0,20,1,393.2650089263916,393.25904846191406,1072,1
51,control,29.0,20,1,418.92313957214355,418.92099380493164,1232,1
52,control,30.0,20,1,496.1357116699219,496.13475799560547,1325,1
53,control,5.0,17,1,98.22297096252441,294.9187755584717,982,1
54,control,6.0,17,1,68.04990768432617,372.1659183502197,1291,1
55,control,7.0,17,1,66.15805625915527,371.5858459472656,1074,1
56,control,8.0,17,1,66.71595573425293,362.2128963470459,844,1
57,control,9.0,17,1,429.7640323638916,429.75592613220215,1403,1
58,control,10.0,17,1,360.68105697631836,360.6760501861572,886,1
59,control,11.0,17,1,328.5648822784424,328.55701446533203,1056,1
60,control,12.0,17,1,426.44786834716797,426.44596099853516,1301,1
61,control,13.0,17,1,362.1482849121094,362.14613914489746,1471,1
62,control,14.0,17,1,428.3618927001953,428.3599853515625,1454,1
63,control,15.0,17,1,468.0321216583252,468.0299758911133,1122,1
64,control,16.0,17,1,526.9570350646973,526.9522666931152,836,1
65,control,17.0,17,1,360.93592643737793,360.9321117401123,818,1
66,control,18.0,17,1,361.2642288208008,361.26208305358887,1409,1
67,control,19.0,17,1,335.47520637512207,335.47306060791016,1481,1
68,control,20.0,17,1,329.0371894836426,329.03003692626953,879,1
69,control,21.0,17,1,326.36094093322754,326.35998725891113,855,1
70,control,22.0,17,1,365.19503593444824,365.19408226013184,1050,1
71,control,23.0,17,1,363.24286460876465,363.2369041442871,1090,1
72,control,24.0,17,1,434.77606773376465,434.77416038513184,867,1
73,control,25.0,17,1,429.1529655456543,429.1508197784424,1476,1
74,control,26.0,17,1,494.3265914916992,494.31777000427246,1040,1
75,control,27.0,17,1,449.54419136047363,449.5432376861572,1468,1
76,control,28.0,17,1,1000.0081062316895,1000.0050067901611,1475,1
77,control,29.0,17,1,524.7480869293213,524.744987487793,971,1
78,control,30.0,17,1,493.7090873718262,493.70598793029785,1355,1
79,control,5.0,17,1,60.45866012573242,361.7680072784424,1464,1
80,control,6.0,17,1,98.68884086608887,297.4987030029297,1054,1
81,control,7.0,17,1,98.03390502929688,295.4380512237549,967,1
82,control,8.0,17,1,65.73605537414551,370.150089263916,912,1
83,control,9.0,17,1,361.7253303527832,361.7222309112549,1439,1
84,control,10.0,17,1,591.6616916656494,591.6547775268555,1264,1
85,control,11.0,17,1,132.0950984954834,361.58204078674316,956,1
86,control,12.0,17,1,394.2749500274658,394.2718505859375,1411,1
87,control,13.0,17,1,459.1412544250488,459.1381549835205,812,1
88,control,14.0,17,1,361.9039058685303,361.90104484558105,1087,1
89,control,15.0,17,1,400.97904205322266,400.97713470458984,820,1
90,control,16.0,17,1,395.0231075286865,395.0209617614746,1475,1
91,control,17.0,17,1,359.46178436279297,359.46083068847656,1408,1
92,control,18.0,17,1,394.34289932250977,394.3359851837158,959,1
93,control,19.0,17,1,362.6551628112793,362.64610290527344,950,1
94,control,20.0,17,1,394.33813095092773,394.334077835083,1463,1
95,control,21.0,17,1,371.61707878112793,371.6132640838623,980,1
96,control,22.0,17,1,402.1589756011963,402.15396881103516,1060,1
97,control,23.0,17,1,460.4830741882324,460.47115325927734,1137,1
98,control,24.0,17,0,659.1720581054688,659.1641902923584,1454,1
99,control,25.0,17,1,427.72793769836426,427.72507667541504,1408,1
100,control,26.0,17,1,427.5209903717041,427.51598358154297,950,1
101,control,27.0,17,1,525.5038738250732,525.4988670349121,1035,1
102,control,28.0,17,1,888.7441158294678,888.7369632720947,1449,1
103,control,29.0,17,1,362.8239631652832,362.8230094909668,963,1
104,control,30.0,17,1,431.8718910217285,431.8699836730957,1475,1
105,control,5.0,14,1,65.85001945495605,296.73099517822266,1065,1
106,control,6.0,14,1,99.94173049926758,329.73480224609375,1256,1
107,control,7.0,14,1,93.3828353881836,812.0996952056885,1045,1
108,control,8.0,14,1,362.35499382019043,362.3538017272949,1318,1
109,control,9.0,14,1,360.3508472442627,360.34202575683594,1073,1
110,control,10.0,14,1,298.11930656433105,813.6942386627197,1451,1
111,control,11.0,14,1,404.65593338012695,404.6509265899658,1053,1
112,control,12.0,14,1,360.14604568481445,360.14389991760254,1367,1
113,control,13.0,14,1,369.33088302612305,369.3270683288574,1403,1
114,control,14.0,14,1,362.9031181335449,362.8978729248047,876,1
115,control,15.0,14,1,459.99789237976074,459.99598503112793,1475,1
116,control,16.0,14,1,319.2861080169678,319.2861080169678,1189,1
117,control,17.0,14,1,351.0699272155762,351.06897354125977,955,1
118,control,18.0,14,1,295.00412940979004,295.0000762939453,1064,1
119,control,19.0,14,1,363.558292388916,363.5573387145996,860,1
120,control,20.0,14,1,326.9040584564209,326.89690589904785,1463,1
121,control,21.0,14,1,363.21377754211426,363.21282386779785,853,1
122,control,22.0,14,1,295.83287239074707,295.82905769348145,1308,1
123,control,23.0,14,0,361.8481159210205,361.8428707122803,1187,1
124,control,24.0,20,1,296.30327224731445,296.30208015441895,907,1
125,control,25.0,14,1,427.5970458984375,427.5941848754883,1278,1
126,control,26.0,14,1,888.2548809051514,888.247013092041,823,1
127,control,27.0,14,1,393.1291103363037,393.1241035461426,1238,1
128,control,28.0,14,1,392.90785789489746,392.90475845336914,1327,1
129,control,29.0,14,1,892.122745513916,892.1220302581787,963,1
130,control,30.0,14,1,791.3641929626465,791.3632392883301,1153,1
131,control,5.0,14,1,98.38676452636719,294.44098472595215,1386,1
132,control,6.0,14,1,91.70794486999512,320.5890655517578,1160,1
133,control,7.0,14,1,100.71921348571777,360.5480194091797,1203,1
134,control,8.0,14,1,360.4848384857178,360.48102378845215,1327,1
135,control,9.0,14,1,384.94396209716797,384.94300842285156,1095,1
136,control,10.0,14,1,362.26415634155273,362.2589111328125,1274,1
137,control,11.0,14,1,363.4319305419922,363.4300231933594,891,1
138,control,12.0,14,1,393.8298225402832,393.8281536102295,940,1
139,control,13.0,14,1,429.45313453674316,429.45194244384766,985,1
140,control,14.0,14,1,361.66882514953613,361.6678714752197,1479,1
141,control,15.0,14,1,395.0231075286865,395.0190544128418,1035,1
142,control,16.0,14,1,427.92391777038574,427.92320251464844,887,1
143,control,17.0,14,1,368.57008934020996,368.56794357299805,973,1
144,control,18.0,14,1,360.0790500640869,360.076904296875,1400,1
145,control,19.0,14,0,296.64087295532227,296.63991928100586,1408,1
146,control,20.0,14,1,361.8288040161133,361.82188987731934,1142,1
147,control,21.0,14,1,362.73694038391113,362.7340793609619,1018,1
148,control,22.0,14,1,366.1820888519287,366.1789894104004,1005,1
149,control,23.0,17,1,459.075927734375,459.0749740600586,1135,1
150,control,24.0,20,1,362.1392250061035,362.1370792388916,1036,1
151,control,25.0,14,1,362.8239631652832,362.8191947937012,1248,1
152,control,26.0,14,1,748.3022212982178,748.3010292053223,1492,1
153,control,27.0,14,1,504.26697731018066,504.2579174041748,1047,1
154,control,28.0,14,1,426.851749420166,426.8479347229004,1147,1
155,control,29.0,14,1,494.0142631530762,494.0071105957031,888,1
156,control,30.0,14,1,593.635082244873,593.6260223388672,1455,1
157,control,5.0,11,1,96.08697891235352,292.67001152038574,1101,1
158,control,6.0,11,1,65.18292427062988,361.4037036895752,1020,1
159,control,7.0,11,1,68.52412223815918,430.52124977111816,1433,1
160,control,8.0,11,1,327.8007507324219,327.79479026794434,1393,1
161,control,9.0,11,1,362.7440929412842,362.7429008483887,961,1
162,control,10.0,11,1,394.70410346984863,394.672155380249,977,1
163,control,11.0,11,1,361.2337112426758,361.23085021972656,865,1
164,control,12.0,11,1,371.20914459228516,371.20509147644043,814,1
165,control,13.0,11,1,461.88902854919434,461.8842601776123,1278,1
166,control,14.0,11,1,425.3270626068115,425.3239631652832,1449,1
167,control,15.0,11,1,396.1598873138428,396.1460590362549,1073,1
168,control,16.0,11,1,359.84206199645996,359.83991622924805,1119,1
169,control,17.0,11,1,363.785982131958,363.7843132019043,1179,1
170,control,18.0,11,1,362.37382888793945,362.37192153930664,1014,1
171,control,19.0,17,1,363.02804946899414,363.02709579467773,876,1
172,control,20.0,11,1,360.9299659729004,360.92305183410645,865,1
173,control,21.0,11,1,393.096923828125,393.0928707122803,1317,1
174,control,22.0,11,1,360.74376106262207,360.73899269104004,1109,1
175,control,23.0,17,1,394.46496963500977,394.4587707519531,1113,1
176,control,24.0,18,1,362.0598316192627,362.05410957336426,1181,1
177,control,25.0,11,1,296.3368892669678,296.33593559265137,1359,1
178,control,26.0,11,1,526.9708633422852,526.9680023193359,1381,1
179,control,27.0,11,1,482.774019241333,482.7721118927002,1394,1
180,control,28.0,11,0,593.621015548706,593.6198234558105,962,1
181,control,29.0,11,1,392.09794998168945,392.0879364013672,1340,1
182,control,30.0,11,0,650.5098342895508,650.5088806152344,1297,1
183,control,5.0,11,1,100.33583641052246,296.0648536682129,1419,1
184,control,6.0,11,1,60.81509590148926,352.38122940063477,1319,1
185,control,7.0,11,1,65.97495079040527,373.1670379638672,1298,1
186,control,8.0,11,1,66.48111343383789,354.5510768890381,1363,1
187,control,9.0,11,1,360.7299327850342,360.7208728790283,821,1
188,control,10.0,11,1,371.8907833099365,371.8867301940918,954,1
189,control,11.0,11,1,361.2511157989502,361.24682426452637,1455,1
190,control,12.0,11,1,352.5121212005615,352.5111675262451,1369,1
191,control,13.0,11,1,361.34934425354004,361.3450527191162,833,1
192,control,14.0,11,1,595.3052043914795,595.3032970428467,821,1
193,control,15.0,11,1,364.635705947876,364.63189125061035,918,1
194,control,16.0,11,1,404.89816665649414,404.8891067504883,1165,1
195,control,17.0,11,1,326.1430263519287,326.1399269104004,1302,1
196,control,18.0,11,1,493.36695671081543,493.3650493621826,940,1
197,control,19.0,17,0,357.5131893157959,357.5122356414795,1356,1
198,control,20.0,11,1,395.51711082458496,395.51615715026855,1117,1
199,control,21.0,11,1,328.1278610229492,328.1259536743164,1393,1
200,control,22.0,11,1,363.9650344848633,363.96098136901855,860,1
201,control,23.0,15,1,1483.6678504943848,1483.6668968200684,1359,1
202,control,24.0,18,1,463.6552333831787,463.6540412902832,901,1
203,control,25.0,11,1,524.9428749084473,524.9340534210205,885,1
204,control,26.0,11,1,434.01217460632324,434.009313583374,819,1
205,control,27.0,11,1,462.9659652709961,462.96191215515137,1486,1
206,control,28.0,14,1,389.53208923339844,389.53089714050293,1140,1
207,control,29.0,11,1,692.5270557403564,692.52610206604,814,1
208,control,30.0,14,1,463.5958671569824,463.590145111084,966,1
209,control,5.0,8,1,104.68769073486328,423.4147071838379,1301,1
210,control,6.0,8,1,95.54791450500488,321.0339546203613,1448,1
211,control,7.0,8,1,98.16288948059082,384.25302505493164,1108,1
212,control,8.0,8,1,99.17807579040527,395.1900005340576,1278,1
213,control,9.0,8,1,395.1699733734131,395.16425132751465,1143,1
214,control,10.0,8,1,437.14308738708496,437.13998794555664,1432,1
215,control,11.0,8,1,396.3358402252197,396.3348865509033,1236,1
216,control,12.0,8,1,427.044153213501,427.03914642333984,1475,1
217,control,13.0,8,1,385.23077964782715,385.22887229919434,1359,1
218,control,14.0,8,1,361.0806465148926,361.07802391052246,943,1
219,control,15.0,8,1,327.33631134033203,327.3310661315918,1348,1
220,control,16.0,8,1,329.61368560791016,329.61297035217285,1261,1
221,control,17.0,8,1,396.05712890625,396.0540294647217,985,1
222,control,18.0,8,1,394.76799964904785,394.7618007659912,1192,1
223,control,19.0,18,1,360.3472709655762,360.34321784973145,838,1
224,control,20.0,8,0,614.9680614471436,614.9671077728271,1240,1
225,control,21.0,8,1,394.61827278137207,394.6113586425781,1072,1
226,control,22.0,8,1,459.7821235656738,459.77783203125,1283,1
227,control,23.0,15,1,392.7421569824219,392.74024963378906,1158,1
228,control,24.0,17,1,328.89580726623535,328.8910388946533,1392,1
229,control,25.0,8,1,428.30491065979004,428.3027648925781,974,1
230,control,26.0,8,1,398.50711822509766,398.50425720214844,1160,1
231,control,27.0,8,1,427.46901512145996,427.46686935424805,870,1
232,control,28.0,14,1,427.53005027770996,427.52575874328613,898,1
233,control,29.0,8,1,498.34585189819336,498.3408451080322,1004,1
234,control,30.0,14,1,428.99513244628906,428.99394035339355,1259,1
235,control,5.0,8,1,97.94306755065918,953.2122611999512,993,1
236,control,6.0,8,1,99.96700286865234,327.8770446777344,1383,1
237,control,7.0,8,1,65.74892997741699,364.14313316345215,1068,1
238,control,8.0,8,1,99.33710098266602,395.5647945404053,1038,1
239,control,9.0,8,1,66.93887710571289,328.7801742553711,1456,1
240,control,10.0,8,1,325.9720802307129,325.96516609191895,1227,1
241,control,11.0,8,1,383.3661079406738,383.3649158477783,1021,1
242,control,12.0,8,1,461.63201332092285,461.6281986236572,1455,1
243,control,13.0,8,1,328.86672019958496,328.86505126953125,1036,1
244,control,14.0,8,1,464.59126472473145,464.58911895751953,1401,1
245,control,15.0,8,1,590.1541709899902,590.151309967041,1241,1
246,control,16.0,8,1,526.8878936767578,526.8847942352295,1090,1
247,control,17.0,8,1,416.2299633026123,416.2290096282959,1221,1
248,control,18.0,8,0,362.86401748657227,362.86306381225586,876,1
249,control,19.0,18,1,326.13372802734375,326.13182067871094,1003,1
250,control,20.0,11,1,328.78613471984863,328.7830352783203,1076,1
251,control,21.0,8,1,693.7949657440186,693.7921047210693,922,1
252,control,22.0,8,1,384.0212821960449,384.0193748474121,1006,1
253,control,23.0,14,1,326.3978958129883,326.39598846435547,862,1
254,control,24.0,17,1,296.05698585510254,296.04601860046387,981,1
255,control,25.0,8,0,591.4156436920166,591.4108753204346,1010,1
256,control,26.0,8,1,556.2999248504639,556.2989711761475,1005,1
257,control,27.0,8,0,629.2569637298584,629.2550563812256,826,1
258,control,28.0,12,1,549.0334033966064,549.0322113037109,1368,1
259,control,29.0,8,1,494.9660301208496,494.9650764465332,867,1
260,control,30.0,12,1,591.8018817901611,591.7949676513672,834,1
261,control,5.0,5,1,99.56002235412598,396.3041305541992,918,1
262,control,6.0,5,1,99.40910339355469,395.7712650299072,1314,1
263,control,7.0,5,1,66.22099876403809,429.9471378326416,823,1
264,control,8.0,5,1,65.26994705200195,394.67883110046387,1106,1
265,control,9.0,5,1,328.2454013824463,328.23801040649414,905,1
266,control,10.0,5,1,295.55678367614746,295.55368423461914,1271,1
267,control,11.0,5,1,394.8519229888916,394.84691619873047,1339,1
268,control,12.0,5,1,330.9061527252197,330.9030532836914,1250,1
269,control,13.0,5,1,329.5941352844238,329.5931816101074,1379,1
270,control,14.0,5,1,658.7986946105957,658.7960720062256,1159,1
271,control,15.0,5,1,702.3971080780029,702.3909091949463,811,1
272,control,16.0,5,0,879.0500164031982,879.0500164031982,1161,1
273,control,17.0,5,1,389.4648551940918,389.4631862640381,1344,1
274,control,18.0,11,1,461.43102645874023,461.4300727844238,1284,1
275,control,19.0,17,1,393.7840461730957,393.779993057251,869,1
276,control,20.0,11,1,813.3227825164795,813.3218288421631,1233,1
277,control,21.0,5,1,527.857780456543,527.8518199920654,1489,1
278,control,22.0,5,0,624.248743057251,624.2408752441406,1048,1
279,control,23.0,14,1,559.211015701294,559.2041015625,1067,1
280,control,24.0,15,1,362.56909370422363,362.5671863555908,1362,1
281,control,25.0,11,1,551.4950752258301,551.4941215515137,1147,1
282,control,26.0,5,1,394.6390151977539,394.6380615234375,1284,1
283,control,27.0,11,1,658.3740711212158,658.3690643310547,986,1
284,control,28.0,12,1,569.5469379425049,569.5369243621826,840,1
285,control,29.0,5,0,1562.2048377990723,1562.201738357544,1172,1
286,control,30.0,12,1,804.3031692504883,804.30006980896,827,1
287,control,5.0,5,1,64.96691703796387,359.7109317779541,863,1
288,control,6.0,5,1,65.7491683959961,461.0130786895752,1351,1
289,control,7.0,5,1,66.925048828125,360.6729507446289,963,1
290,control,8.0,5,1,66.39289855957031,329.76508140563965,1147,1
291,control,9.0,5,0,630.0861835479736,630.0749778747559,1262,1
292,control,10.0,5,1,427.3660182952881,427.35791206359863,1117,1
293,control,11.0,5,1,560.6868267059326,560.6858730316162,807,1
294,control,12.0,5,1,430.8888912200928,430.88579177856445,1247,1
295,control,13.0,5,1,591.9883251190186,591.9790267944336,1044,1
296,control,14.0,5,1,567.6219463348389,567.6159858703613,976,1
297,control,15.0,5,0,583.5568904876709,583.5568904876709,1153,1
298,control,16.0,8,1,526.3490676879883,526.3440608978271,963,1
299,control,17.0,5,1,527.3420810699463,527.3377895355225,1234,1
300,control,18.0,11,1,569.9551105499268,569.9489116668701,849,1
301,control,19.0,17,1,1187.6671314239502,1187.664270401001,1489,1
302,control,20.0,9,1,501.3589859008789,501.35207176208496,1113,1
303,control,21.0,5,1,461.06910705566406,461.06815338134766,1225,1
304,control,22.0,8,1,395.4010009765625,395.3988552093506,1346,1
305,control,23.0,12,1,528.9580821990967,528.9568901062012,888,1
306,control,24.0,15,1,694.361686706543,694.3590641021729,1484,1
307,control,25.0,11,1,329.7240734100342,329.7231197357178,1069,1
308,control,26.0,5,0,558.8626861572266,558.8588714599609,849,1
309,control,27.0,11,1,559.1239929199219,559.1158866882324,966,1
310,control,28.0,11,1,426.2840747833252,426.28002166748047,1146,1
311,control,29.0,8,0,567.1589374542236,567.1579837799072,808,1
312,control,30.0,11,1,484.2231273651123,484.2221736907959,815,1
313,control,5.0,2,1,98.43730926513672,460.59703826904297,994,1
314,control,6.0,2,1,97.71990776062012,591.5358066558838,1175,1
315,control,7.0,2,1,99.11179542541504,789.2720699310303,1021,1
316,control,8.0,2,0,626.4200210571289,626.4171600341797,881,1
317,control,9.0,8,1,91.25709533691406,749.8660087585449,1363,1
318,control,10.0,2,1,426.77998542785645,426.7687797546387,894,1
319,control,11.0,2,0,947.6318359375,947.6308822631836,1145,1
320,control,12.0,2,1,649.0209102630615,649.0199565887451,1409,1
321,control,13.0,2,1,493.06297302246094,493.056058883667,1055,1
322,control,14.0,2,1,460.9079360961914,460.9041213989258,879,1
323,control,15.0,8,0,525.9439945220947,525.9420871734619,1338,1
324,control,16.0,8,1,395.0231075286865,395.01500129699707,1337,1
325,control,17.0,2,1,493.4701919555664,493.4680461883545,850,1
326,control,18.0,9,0,526.0608196258545,526.0601043701172,1437,1
327,control,19.0,16,1,560.5449676513672,560.5418682098389,1455,1
328,control,20.0,9,1,591.9687747955322,591.9549465179443,1182,1
329,control,21.0,2,0,565.6859874725342,565.6828880310059,1127,1
330,control,22.0,8,1,494.830846786499,494.8298931121826,1027,1
331,control,23.0,12,0,396.1961269378662,396.1920738220215,1056,1
332,control,24.0,14,1,393.9318656921387,393.92876625061035,1369,1
333,control,25.0,9,1,329.25915718078613,329.2548656463623,898,1
334,control,26.0,8,0,628.0083656311035,628.0043125152588,925,1
335,control,27.0,9,1,504.986047744751,504.98199462890625,1370,1
336,control,28.0,11,1,394.12999153137207,394.12689208984375,834,1
337,control,29.0,11,1,693.2098865509033,693.2060718536377,1057,1
338,control,30.0,11,1,458.27221870422363,458.2710266113281,1214,1
339,control,5.0,2,1,130.96094131469727,328.6867141723633,867,1
340,control,6.0,2,0,67.16394424438477,527.7099609375,1068,1
341,control,7.0,2,0,99.25603866577148,988.1319999694824,1483,1
342,control,8.0,5,1,787.7030372619629,787.7011299133301,1438,1
343,control,9.0,8,1,384.8738670349121,384.8719596862793,887,1
344,control,10.0,2,1,657.6499938964844,657.6430797576904,808,1
345,control,11.0,5,0,537.1367931365967,537.1341705322266,1219,1
346,control,12.0,2,0,617.4521446228027,617.4509525299072,1130,1
347,control,13.0,2,0,467.10205078125,467.0982360839844,1478,1
348,control,14.0,2,1,394.7889804840088,394.78302001953125,1106,1
349,control,15.0,11,1,452.82602310180664,452.8238773345947,1371,1
350,control,16.0,6,1,450.86216926574707,450.86097717285156,1297,1
351,control,17.0,2,0,461.6260528564453,461.6250991821289,1380,1
352,control,18.0,11,1,558.7079524993896,558.7019920349121,1137,1
353,control,19.0,16,0,791.0430431365967,791.0349369049072,1197,1
354,control,20.0,8,1,461.5628719329834,461.55691146850586,1255,1
355,control,21.0,5,0,683.6850643157959,683.6841106414795,834,1
356,control,22.0,6,1,394.93417739868164,394.9298858642578,1115,1
357,control,23.0,14,0,790.1871204376221,790.1821136474609,1115,1
358,control,24.0,14,0,565.4129981994629,565.4098987579346,1324,1
359,control,25.0,9,1,495.4037666320801,495.40185928344727,1154,1
360,control,26.0,11,1,463.778018951416,463.7770652770996,1260,1
361,control,27.0,9,1,394.70386505126953,394.6969509124756,1236,1
362,control,28.0,9,0,486.238956451416,486.2377643585205,1405,1
363,control,29.0,11,0,527.3358821868896,527.3351669311523,981,1
364,control,30.0,9,0,494.3070411682129,494.30298805236816,1120,1
365,control,5.0,1,1,63.421010971069336,658.8261127471924,1259,1
366,control,6.0,5,0,98.33908081054688,460.0541591644287,1323,1
367,control,7.0,5,0,64.26596641540527,460.529088973999,1402,1
368,control,8.0,5,1,590.0681018829346,590.062141418457,998,1
369,control,9.0,6,1,394.8819637298584,394.8781490325928,1015,1
370,control,10.0,1,0,788.337230682373,788.3322238922119,1018,1
371,control,11.0,8,1,395.53308486938477,395.53117752075195,1499,1
372,control,12.0,5,0,394.3753242492676,394.37103271484375,1292,1
373,control,13.0,5,1,562.2360706329346,562.2310638427734,1025,1
374,control,14.0,1,1,615.5910491943359,615.5900955200195,1336,1
375,control,15.0,11,1,396.20089530944824,396.1968421936035,1449,1
376,control,16.0,6,0,692.0948028564453,692.0938491821289,1442,1
377,control,17.0,5,1,615.6809329986572,615.6799793243408,1211,1
378,control,18.0,11,1,493.7441349029541,493.73793601989746,1371,1
379,control,19.0,17,1,427.55794525146484,427.5550842285156,1285,1
380,control,20.0,8,1,395.3123092651367,395.3111171722412,834,1
381,control,21.0,8,1,700.0958919525146,700.0927925109863,1251,1
382,control,22.0,6,0,527.2068977355957,527.2049903869629,1500,1
383,control,23.0,15,1,393.4040069580078,393.3992385864258,1442,1
384,control,24.0,15,1,394.3347930908203,394.3307399749756,890,1
385,control,25.0,8,1,453.233003616333,453.233003616333,1171,1
386,control,26.0,11,1,406.0637950897217,406.0547351837158,1411,1
387,control,27.0,8,0,681.4470291137695,681.4463138580322,1466,1
388,control,28.0,11,1,625.730037689209,625.7250308990479,1256,1
389,control,29.0,12,1,527.0600318908691,527.0590782165527,1490,1
1,quadbright,5.0,20,1,66.13707542419434,362.8411293029785,1006,1
2,quadbright,6.0,20,1,98.75702857971191,463.3898735046387,1317,1
3,quadbright,7.0,20,1,98.93679618835449,327.46076583862305,876,1
4,quadbright,8.0,20,1,70.66011428833008,1316.1587715148926,1131,1
5,quadbright,9.0,20,1,362.43605613708496,362.43510246276855,1206,1
6,quadbright,10.0,20,1,367.7339553833008,367.73014068603516,1109,1
7,quadbright,11.0,20,1,361.77587509155273,361.7668151855469,888,1
8,quadbright,12.0,20,1,459.75399017333984,459.7480297088623,1187,1
9,quadbright,13.0,20,1,363.7111186981201,363.7099266052246,1068,1
10,quadbright,14.0,20,1,435.73594093322754,435.7318878173828,1054,1
11,quadbright,15.0,20,1,361.17100715637207,361.1640930175781,1019,1
12,quadbright,16.0,20,1,385.53619384765625,385.53404808044434,914,1
13,quadbright,17.0,20,1,295.9330081939697,295.9268093109131,1212,1
14,quadbright,18.0,20,1,393.2502269744873,393.2452201843262,905,1
15,quadbright,19.0,20,1,427.08396911621094,427.0777702331543,1301,1
16,quadbright,20.0,20,1,433.11524391174316,433.11095237731934,999,1
17,quadbright,21.0,20,1,362.0460033416748,362.0448112487793,1362,1
18,quadbright,22.0,20,1,427.79016494750977,427.7780055999756,1060,1
19,quadbright,23.0,20,1,363.2481098175049,363.24310302734375,1298,1
20,quadbright,24.0,20,1,427.51407623291016,427.51288414001465,894,1
21,quadbright,25.0,20,1,361.77515983581543,361.7711067199707,1131,1
22,quadbright,26.0,20,1,1648.4296321868896,1648.4248638153076,1361,1
23,quadbright,27.0,20,1,428.8668632507324,428.8661479949951,881,1
24,quadbright,28.0,20,1,396.3899612426758,396.38471603393555,1141,1
25,quadbright,29.0,20,0,1515.279769897461,1515.2668952941895,817,1
26,quadbright,30.0,20,1,593.2092666625977,593.203067779541,1282,1
27,quadbright,5.0,20,1,99.50900077819824,395.4119682312012,1386,1
28,quadbright,6.0,20,1,98.85787963867188,393.388032913208,1017,1
29,quadbright,7.0,20,1,68.66812705993652,334.48314666748047,854,1
30,quadbright,8.0,20,1,69.0770149230957,365.50021171569824,1355,1
31,quadbright,9.0,20,1,229.80618476867676,395.68591117858887,943,1
32,quadbright,10.0,20,1,361.50097846984863,361.4988327026367,859,1
33,quadbright,11.0,20,1,362.85400390625,362.84780502319336,1214,1
34,quadbright,12.0,20,1,439.4707679748535,439.4669532775879,837,1
35,quadbright,13.0,20,1,451.3359069824219,451.33495330810547,1416,1
36,quadbright,14.0,20,1,394.32382583618164,394.3209648132324,1039,1
37,quadbright,15.0,20,1,418.7018871307373,418.7006950378418,1446,1
38,quadbright,16.0,20,1,425.8248805999756,425.8158206939697,842,1
39,quadbright,17.0,20,1,395.8101272583008,395.8101272583008,1484,1
40,quadbright,18.0,20,1,426.99623107910156,426.9881248474121,1261,1
41,quadbright,19.0,20,1,417.30189323425293,417.30189323425293,834,1
42,quadbright,20.0,20,1,419.79408264160156,419.79312896728516,1012,1
43,quadbright,21.0,20,1,462.0862007141113,462.0852470397949,1322,1
44,quadbright,22.0,20,1,427.92391777038574,427.9210567474365,839,1
45,quadbright,23.0,20,1,528.8920402526855,528.8891792297363,986,1
46,quadbright,24.0,20,1,517.2519683837891,517.2507762908936,1321,1
47,quadbright,25.0,20,1,462.3980522155762,462.39709854125977,1346,1
48,quadbright,26.0,20,1,391.0658359527588,391.0641670227051,1362,1
49,quadbright,27.0,20,1,429.6092987060547,429.6071529388428,1020,1
50,quadbright,28.0,20,1,383.47792625427246,383.47721099853516,958,1
51,quadbright,29.0,23,1,426.96595191955566,426.96285247802734,1043,1
52,quadbright,30.0,20,1,402.36783027648926,402.36401557922363,1116,1
53,quadbright,5.0,17,1,66.07317924499512,352.36120223999023,1293,1
54,quadbright,6.0,17,1,59.72695350646973,518.9859867095947,959,1
55,quadbright,7.0,17,1,98.76513481140137,394.5879936218262,1291,1
56,quadbright,8.0,17,1,395.2760696411133,395.27010917663574,824,1
57,quadbright,9.0,17,1,98.91510009765625,395.99013328552246,1405,1
58,quadbright,10.0,17,1,360.7349395751953,360.72707176208496,1390,1
59,quadbright,11.0,17,1,462.2352123260498,462.2321128845215,1027,1
60,quadbright,12.0,17,1,421.5879440307617,421.5857982635498,1443,1
61,quadbright,13.0,17,1,419.41308975219727,419.41189765930176,1187,1
62,quadbright,14.0,17,1,384.68098640441895,384.68098640441895,1132,1
63,quadbright,15.0,17,1,329.226016998291,329.2229175567627,902,1
64,quadbright,16.0,17,1,428.3099174499512,428.30896377563477,1337,1
65,quadbright,17.0,17,1,365.0081157684326,365.0071620941162,1023,1
66,quadbright,18.0,17,1,361.4768981933594,361.47284507751465,982,1
67,quadbright,19.0,17,1,334.5510959625244,334.550142288208,809,1
68,quadbright,20.0,17,1,469.67172622680664,469.6698188781738,1317,1
69,quadbright,21.0,17,1,363.2471561431885,363.24095726013184,1256,1
70,quadbright,22.0,17,1,362.75315284729004,362.7440929412842,897,1
71,quadbright,23.0,17,1,363.35277557373047,363.35110664367676,1136,1
72,quadbright,24.0,17,1,328.8140296936035,328.8121223449707,1274,1
73,quadbright,25.0,17,1,394.3338394165039,394.3297863006592,1120,1
74,quadbright,26.0,17,1,370.7611560821533,370.758056640625,1011,1
75,quadbright,27.0,17,1,394.9401378631592,394.93823051452637,1083,1
76,quadbright,28.0,17,1,593.3947563171387,593.390703201294,890,1
77,quadbright,29.0,23,1,428.9212226867676,428.91812324523926,1248,1
78,quadbright,30.0,17,1,626.8680095672607,626.8672943115234,1471,1
79,quadbright,5.0,17,1,70.00207901000977,368.35408210754395,869,1
80,quadbright,6.0,17,1,65.03605842590332,361.6678714752197,995,1
81,quadbright,7.0,17,1,66.80011749267578,362.2889518737793,1158,1
82,quadbright,8.0,17,1,65.87791442871094,298.9640235900879,1114,1
83,quadbright,9.0,17,1,360.99886894226074,360.9957695007324,1180,1
84,quadbright,10.0,17,1,65.68598747253418,426.72014236450195,1467,1
85,quadbright,11.0,17,1,361.7899417877197,361.7830276489258,1197,1
86,quadbright,12.0,17,0,296.3390350341797,296.3390350341797,1038,1
87,quadbright,13.0,17,1,460.8910083770752,460.88504791259766,1153,1
88,quadbright,14.0,17,1,428.10606956481934,428.0989170074463,1141,1
89,quadbright,15.0,17,1,526.6811847686768,526.6790390014648,865,0
90,quadbright,15.0,17,0,334.8350524902344,334.83409881591797,1059,1
91,quadbright,16.0,17,1,426.88584327697754,426.8810749053955,954,1
92,quadbright,17.0,17,1,366.20593070983887,366.20402336120605,1153,1
93,quadbright,18.0,17,1,360.43381690979004,360.4259490966797,1115,1
94,quadbright,19.0,17,1,484.2050075531006,484.2040538787842,1091,1
95,quadbright,20.0,17,1,360.07189750671387,360.06808280944824,864,1
96,quadbright,21.0,17,1,393.963098526001,393.95880699157715,1078,1
97,quadbright,22.0,17,1,353.7628650665283,353.7609577178955,1264,1
98,quadbright,23.0,17,1,427.57511138916016,427.5689125061035,1397,1
99,quadbright,24.0,17,1,360.5351448059082,360.5329990386963,1422,1
100,quadbright,25.0,17,1,958.0209255218506,958.0202102661133,1437,1
101,quadbright,26.0,17,1,400.94709396362305,400.9408950805664,1333,1
102,quadbright,27.0,17,1,361.41180992126465,361.4068031311035,1123,1
103,quadbright,28.0,17,1,389.7209167480469,389.71996307373047,1166,1
104,quadbright,29.0,20,1,394.35625076293945,394.35434341430664,1445,1
105,quadbright,30.0,17,1,393.12291145324707,393.12100410461426,1405,1
106,quadbright,5.0,14,1,65.32096862792969,362.26725578308105,1459,1
107,quadbright,6.0,14,1,66.04695320129395,353.49202156066895,1031,1
108,quadbright,7.0,14,1,98.89078140258789,296.99206352233887,1117,1
109,quadbright,8.0,14,1,97.47791290283203,392.9569721221924,1251,1
110,quadbright,9.0,14,1,326.977014541626,326.97534561157227,1406,1
111,quadbright,10.0,14,1,361.50383949279785,361.4990711212158,1482,1
112,quadbright,11.0,14,1,428.35402488708496,428.35283279418945,1371,1
113,quadbright,12.0,20,1,327.6538848876953,327.64387130737305,1421,1
114,quadbright,13.0,14,1,327.94690132141113,327.9380798339844,1117,1
115,quadbright,14.0,14,1,394.6878910064697,394.6809768676758,1472,1
116,quadbright,15.0,20,1,363.21020126342773,363.2028102874756,1063,1
117,quadbright,16.0,14,1,396.12889289855957,396.12507820129395,863,1
118,quadbright,17.0,14,1,351.1779308319092,351.17578506469727,859,1
119,quadbright,18.0,14,1,362.5509738922119,362.54310607910156,1099,1
120,quadbright,19.0,14,1,296.4489459991455,296.4451313018799,933,1
121,quadbright,20.0,14,1,393.3711051940918,393.36609840393066,930,1
122,quadbright,21.0,14,1,327.5911808013916,327.58593559265137,1104,1
123,quadbright,22.0,14,1,395.9031105041504,395.89715003967285,1486,1
124,quadbright,23.0,14,1,439.3270015716553,439.32390213012695,892,1
125,quadbright,24.0,14,1,326.0190486907959,326.0171413421631,1131,1
126,quadbright,25.0,14,1,295.5601215362549,295.55296897888184,931,1
127,quadbright,26.0,14,1,395.05791664123535,395.05481719970703,1249,1
128,quadbright,27.0,14,1,398.745059967041,398.7421989440918,1457,1
129,quadbright,28.0,14,1,789.4880771636963,789.4861698150635,1319,1
130,quadbright,29.0,20,1,450.64401626586914,450.64282417297363,879,1
131,quadbright,30.0,14,1,1022.5541591644287,1022.5529670715332,1480,1
132,quadbright,5.0,14,1,65.57393074035645,293.7169075012207,895,1
133,quadbright,6.0,14,1,65.4149055480957,294.4178581237793,1338,1
134,quadbright,7.0,14,1,66.03789329528809,428.29084396362305,944,1
135,quadbright,8.0,14,1,427.52814292907715,427.5200366973877,1179,1
136,quadbright,9.0,14,1,296.6041564941406,296.6022491455078,1062,1
137,quadbright,10.0,14,1,362.02192306518555,362.0131015777588,1413,1
138,quadbright,11.0,14,1,370.5568313598633,370.55373191833496,1328,1
139,quadbright,12.0,20,1,295.9890365600586,295.98212242126465,1223,1
140,quadbright,13.0,14,1,362.31303215026855,362.31207847595215,920,1
141,quadbright,14.0,14,1,361.0808849334717,361.07397079467773,1307,1
142,quadbright,15.0,20,1,372.11084365844727,372.1029758453369,888,1
143,quadbright,16.0,14,1,403.0189514160156,403.00798416137695,1085,1
144,quadbright,17.0,14,1,352.1537780761719,352.15282440185547,1252,1
145,quadbright,18.0,14,1,757.1017742156982,757.0998668670654,1337,1
146,quadbright,19.0,14,1,401.49497985839844,401.4880657196045,1305,1
147,quadbright,20.0,14,1,425.57334899902344,425.5712032318115,947,1
148,quadbright,21.0,14,1,437.97898292541504,437.9739761352539,1196,1
149,quadbright,22.0,14,1,394.29306983947754,394.2878246307373,1213,1
150,quadbright,23.0,14,1,395.9660530090332,395.9612846374512,842,1
151,quadbright,24.0,14,1,362.89501190185547,362.89310455322266,1209,1
152,quadbright,25.0,14,1,1186.255693435669,1186.2530708312988,882,1
153,quadbright,26.0,14,1,458.543062210083,458.5399627685547,896,1
154,quadbright,27.0,14,1,597.3308086395264,597.3291397094727,1254,1
155,quadbright,28.0,14,1,592.2079086303711,592.20290184021,879,1
156,quadbright,29.0,17,1,591.4759635925293,591.4700031280518,813,1
157,quadbright,30.0,14,0,715.8360481262207,715.8339023590088,1159,1
158,quadbright,5.0,11,1,65.62399864196777,365.3450012207031,812,1
159,quadbright,6.0,11,1,66.76697731018066,362.43319511413574,1323,1
160,quadbright,7.0,11,1,99.4870662689209,296.3521480560303,1351,1
161,quadbright,8.0,11,1,296.2472438812256,296.24342918395996,1491,1
162,quadbright,9.0,11,1,353.3141613006592,353.3129692077637,1059,1
163,quadbright,10.0,11,1,394.0873146057129,394.08206939697266,1291,1
164,quadbright,11.0,11,1,390.96999168395996,390.96522331237793,1200,1
165,quadbright,12.0,18,1,362.59984970092773,362.5941276550293,1007,1
166,quadbright,13.0,11,1,362.2901439666748,362.2889518737793,912,1
167,quadbright,14.0,11,1,427.2897243499756,427.28495597839355,895,1
168,quadbright,15.0,18,1,362.9441261291504,362.9419803619385,1339,1
169,quadbright,16.0,11,1,428.4398555755615,428.4379482269287,1198,1
170,quadbright,17.0,11,1,494.10200119018555,494.10104751586914,868,1
171,quadbright,18.0,11,1,461.5609645843506,461.5480899810791,1285,1
172,quadbright,19.0,11,1,368.37315559387207,368.36791038513184,1457,1
173,quadbright,20.0,11,1,394.0548896789551,394.05202865600586,1344,1
174,quadbright,21.0,11,1,351.7460823059082,351.7451286315918,1322,1
175,quadbright,22.0,11,1,584.4898223876953,584.4888687133789,1470,1
176,quadbright,23.0,11,1,428.8499355316162,428.844690322876,1087,1
177,quadbright,24.0,11,1,393.878698348999,393.8770294189453,916,1
178,quadbright,25.0,11,1,604.1238307952881,604.1209697723389,1463,1
179,quadbright,26.0,11,0,592.5459861755371,592.5450325012207,993,1
180,quadbright,27.0,11,1,417.8628921508789,417.8619384765625,981,1
181,quadbright,28.0,11,0,592.0541286468506,592.0522212982178,1151,1
182,quadbright,29.0,17,1,691.2312507629395,691.2291049957275,1034,1
183,quadbright,30.0,17,1,659.7490310668945,659.7440242767334,934,1
184,quadbright,5.0,11,1,99.20716285705566,330.07311820983887,1314,1
185,quadbright,6.0,11,1,70.51396369934082,370.1298236846924,988,1
186,quadbright,7.0,11,1,100.24595260620117,296.8738079071045,1302,1
187,quadbright,8.0,11,1,66.09821319580078,361.9880676269531,1294,1
188,quadbright,9.0,11,1,451.47705078125,451.4760971069336,1468,1
189,quadbright,10.0,11,1,363.33584785461426,363.33489418029785,1420,1
190,quadbright,11.0,11,1,396.79479598999023,396.7888355255127,1355,1
191,quadbright,12.0,18,1,350.8429527282715,350.841760635376,1226,1
192,quadbright,13.0,11,1,1737.7748489379883,1737.7729415893555,1411,1
193,quadbright,14.0,11,0,960.9510898590088,960.9501361846924,1329,1
194,quadbright,15.0,18,1,427.1388053894043,427.1371364593506,847,1
195,quadbright,16.0,11,0,591.9220447540283,591.9170379638672,1368,1
196,quadbright,17.0,11,1,461.6260528564453,461.6210460662842,1150,1
197,quadbright,18.0,11,1,756.6468715667725,756.6447257995605,1216,1
198,quadbright,19.0,11,1,365.62609672546387,365.62299728393555,912,1
199,quadbright,20.0,11,1,360.89181900024414,360.8887195587158,1405,1
200,quadbright,21.0,11,1,393.3110237121582,393.27311515808105,1276,1
201,quadbright,22.0,11,1,362.5450134277344,362.54405975341797,1288,1
202,quadbright,23.0,11,1,527.7760028839111,527.7748107910156,800,1
203,quadbright,24.0,11,1,582.5841426849365,582.5831890106201,928,1
204,quadbright,25.0,11,1,494.07267570495605,494.067907333374,1128,1
205,quadbright,26.0,14,1,395.1690196990967,395.16496658325195,996,1
206,quadbright,27.0,11,1,657.4170589447021,657.4139595031738,820,1
207,quadbright,28.0,14,1,393.0633068084717,393.06020736694336,833,1
208,quadbright,29.0,14,0,668.2350635528564,668.2322025299072,1047,1
209,quadbright,30.0,17,1,757.7848434448242,757.7810287475586,1493,1
210,quadbright,5.0,8,1,98.46091270446777,326.9960880279541,1343,1
211,quadbright,6.0,8,1,99.05791282653809,801.3477325439453,842,1
212,quadbright,7.0,8,1,97.42403030395508,398.144006729126,1180,1
213,quadbright,8.0,8,1,99.11608695983887,389.99295234680176,1379,1
214,quadbright,9.0,8,1,792.8259372711182,792.8240299224854,1480,1
215,quadbright,10.0,8,1,494.0910339355469,494.08721923828125,1320,1
216,quadbright,11.0,8,1,692.1758651733398,692.1741962432861,967,1
217,quadbright,12.0,17,1,791.6901111602783,791.6839122772217,955,1
218,quadbright,13.0,8,0,954.8139572143555,954.8108577728271,1364,1
219,quadbright,14.0,14,1,363.5101318359375,363.50107192993164,1144,1
220,quadbright,15.0,17,1,394.5920467376709,394.58703994750977,1142,1
221,quadbright,16.0,14,1,333.83965492248535,333.83870124816895,866,1
222,quadbright,17.0,8,0,699.758768081665,699.7566223144531,977,1
223,quadbright,18.0,8,1,570.5931186676025,570.5900192260742,1145,1
224,quadbright,19.0,8,0,800.2490997314453,800.2419471740723,1027,1
225,quadbright,20.0,8,1,483.9789867401123,483.9780330657959,838,1
226,quadbright,21.0,8,1,460.2959156036377,460.2808952331543,1345,1
227,quadbright,22.0,8,1,592.3337936401367,592.3290252685547,1334,1
228,quadbright,23.0,8,0,725.9631156921387,725.9571552276611,1367,1
229,quadbright,24.0,8,1,395.6880569458008,395.6871032714844,1302,1
230,quadbright,25.0,8,1,558.9499473571777,558.9470863342285,1415,1
231,quadbright,26.0,14,1,328.5191059112549,328.51719856262207,1051,1
232,quadbright,27.0,8,1,493.8690662384033,493.865966796875,1031,1
233,quadbright,28.0,14,0,734.6160411834717,734.6100807189941,834,1
234,quadbright,29.0,17,1,427.4249076843262,427.42085456848145,1411,1
235,quadbright,30.0,15,1,495.9707260131836,495.9700107574463,1115,1
236,quadbright,5.0,8,1,62.017202377319336,391.3099765777588,1227,1
237,quadbright,6.0,8,1,61.8739128112793,360.05306243896484,920,1
238,quadbright,7.0,8,1,65.61899185180664,418.22099685668945,1422,1
239,quadbright,8.0,8,1,68.39776039123535,370.7430362701416,972,1
240,quadbright,9.0,8,1,765.2490139007568,765.2459144592285,1092,1
241,quadbright,10.0,8,1,461.46082878112793,461.4589214324951,1419,1
242,quadbright,11.0,8,1,461.52806282043457,461.52710914611816,1436,1
243,quadbright,12.0,17,1,429.4850826263428,429.48293685913086,914,1
244,quadbright,13.0,11,1,327.65793800354004,327.6519775390625,904,1
245,quadbright,14.0,14,1,385.35404205322266,385.35308837890625,843,1
246,quadbright,15.0,17,1,396.5280055999756,396.5270519256592,1444,1
247,quadbright,16.0,14,1,352.7030944824219,352.70214080810547,1124,1
248,quadbright,17.0,11,1,370.0690269470215,370.06616592407227,1263,1
249,quadbright,18.0,8,0,691.6699409484863,691.6649341583252,1489,1
250,quadbright,19.0,11,0,1046.5209484100342,1046.5199947357178,1023,1
251,quadbright,20.0,8,1,622.4179267883301,622.4167346954346,992,1
252,quadbright,21.0,8,1,622.3750114440918,622.3719120025635,1119,1
253,quadbright,22.0,8,0,624.0558624267578,624.053955078125,968,1
254,quadbright,23.0,11,1,493.1528568267822,493.1478500366211,1239,1
255,quadbright,24.0,8,1,548.7208366394043,548.7198829650879,1128,1
256,quadbright,25.0,8,1,559.5238208770752,559.5207214355469,1335,1
257,quadbright,26.0,12,1,453.33313941955566,453.33194732666016,1242,1
258,quadbright,27.0,8,1,636.8618011474609,636.8577480316162,1463,1
259,quadbright,28.0,15,0,397.6480960845947,397.6471424102783,1240,1
260,quadbright,29.0,17,1,459.51008796691895,459.5069885253906,1238,1
261,quadbright,30.0,15,1,592.4129486083984,592.4088954925537,1336,1
262,quadbright,5.0,5,1,55.38177490234375,319.0608024597168,1306,1
263,quadbright,6.0,5,1,65.10686874389648,394.07896995544434,1241,1
264,quadbright,7.0,5,1,194.71502304077148,350.3742218017578,1276,1
265,quadbright,8.0,5,1,260.936975479126,425.1549243927002,1465,1
266,quadbright,9.0,5,1,69.04983520507812,684.8037242889404,1326,1
267,quadbright,10.0,5,1,590.4631614685059,590.458869934082,1321,1
268,quadbright,11.0,5,1,550.1711368560791,550.1701831817627,998,1
269,quadbright,12.0,15,1,395.0769901275635,395.07603645324707,952,1
270,quadbright,13.0,11,1,559.0808391571045,559.0782165527344,1134,1
271,quadbright,14.0,12,1,461.5781307220459,461.5769386291504,1430,1
272,quadbright,15.0,15,0,623.6550807952881,623.650074005127,919,1
273,quadbright,16.0,12,1,459.99789237976074,459.9931240081787,1152,1
274,quadbright,17.0,11,1,364.8371696472168,364.8340702056885,920,1
275,quadbright,18.0,11,1,363.53206634521484,363.53111267089844,980,1
276,quadbright,19.0,14,1,402.2371768951416,402.2362232208252,1033,1
277,quadbright,20.0,5,0,494.13108825683594,494.1291809082031,1323,1
278,quadbright,21.0,5,0,549.7121810913086,549.7112274169922,1362,1
279,quadbright,22.0,11,1,391.7241096496582,391.7210102081299,840,1
280,quadbright,23.0,11,1,657.6309204101562,657.6271057128906,850,1
281,quadbright,24.0,5,1,396.47889137268066,396.47793769836426,1146,1
282,quadbright,25.0,5,1,402.1780490875244,402.1749496459961,943,1
283,quadbright,26.0,12,1,494.01402473449707,494.00782585144043,897,1
284,quadbright,27.0,5,1,692.9178237915039,692.9159164428711,1384,1
285,quadbright,28.0,17,1,395.31898498535156,395.31588554382324,1023,1
286,quadbright,29.0,15,1,563.791036605835,563.7729167938232,1134,1
287,quadbright,30.0,14,0,669.0120697021484,669.0061092376709,870,1
288,quadbright,5.0,5,1,99.7157096862793,526.6058444976807,952,1
289,quadbright,6.0,5,1,64.01419639587402,327.86107063293457,1100,1
290,quadbright,7.0,5,1,97.32627868652344,416.58520698547363,995,1
291,quadbright,8.0,5,1,594.0289497375488,594.0279960632324,1030,1
292,quadbright,9.0,5,1,164.83235359191895,492.9232597351074,1003,1
293,quadbright,10.0,5,1,820.9648132324219,820.9598064422607,1273,1
294,quadbright,11.0,5,0,616.9219017028809,616.9207096099854,1121,1
295,quadbright,12.0,15,1,403.33080291748047,403.3238887786865,1065,1
296,quadbright,13.0,9,0,659.0721607208252,659.0681076049805,1019,1
297,quadbright,14.0,12,1,624.0959167480469,624.0930557250977,899,1
298,quadbright,15.0,17,1,460.8790874481201,460.8733654022217,957,1
299,quadbright,16.0,12,0,403.26404571533203,403.2609462738037,1294,1
300,quadbright,17.0,9,1,682.8341484069824,682.833194732666,1037,1
301,quadbright,18.0,11,1,592.6201343536377,592.6132202148438,896,1
302,quadbright,19.0,14,1,517.3201560974121,517.3192024230957,887,1
303,quadbright,20.0,8,0,851.0992527008057,851.0980606079102,1081,1
304,quadbright,21.0,8,0,780.9982299804688,780.9972763061523,944,1
305,quadbright,22.0,11,1,459.31506156921387,459.31315422058105,1032,1
306,quadbright,23.0,9,1,461.6107940673828,461.6107940673828,1374,1
307,quadbright,24.0,5,0,791.7709350585938,791.7702198028564,836,1
308,quadbright,25.0,5,0,856.9610118865967,856.959342956543,1091,1
309,quadbright,26.0,11,1,693.079948425293,693.0768489837646,872,1
310,quadbright,27.0,5,0,570.9240436553955,570.9171295166016,1182,1
311,quadbright,28.0,17,1,549.7746467590332,549.7739315032959,1366,1
312,quadbright,29.0,15,1,458.1780433654785,458.1758975982666,1413,1
313,quadbright,30.0,15,0,491.8060302734375,491.8050765991211,1341,1
314,quadbright,5.0,2,1,65.53912162780762,658.8499546051025,1371,1
315,quadbright,6.0,2,0,792.9260730743408,792.9179668426514,1409,1
316,quadbright,7.0,2,1,65.50025939941406,556.6821098327637,1002,1
317,quadbright,8.0,2,0,561.7330074310303,561.7311000823975,1298,1
318,quadbright,9.0,2,0,484.04622077941895,484.04526710510254,1176,1
319,quadbright,10.0,2,0,494.0199851989746,494.0190315246582,986,1
320,quadbright,11.0,8,0,558.3686828613281,558.3658218383789,809,1
321,quadbright,12.0,14,1,395.0188159942627,395.0169086456299,1489,1
322,quadbright,13.0,11,1,494.4338798522949,494.4329261779785,914,1
323,quadbright,14.0,11,1,523.935079574585,523.9310264587402,894,1
324,quadbright,15.0,17,1,501.85585021972656,501.85418128967285,950,1
325,quadbright,16.0,14,1,328.441858291626,328.43899726867676,1486,1
326,quadbright,17.0,9,1,460.6499671936035,460.6461524963379,873,1
327,quadbright,18.0,9,0,451.7800807952881,451.7791271209717,1023,1
328,quadbright,19.0,12,1,565.5100345611572,565.5081272125244,1488,1
329,quadbright,20.0,11,1,585.3898525238037,585.3888988494873,1180,1
330,quadbright,21.0,11,1,551.9979000091553,551.9969463348389,1194,1
331,quadbright,22.0,9,1,395.3218460083008,395.3208923339844,894,1
332,quadbright,23.0,9,0,725.2070903778076,725.200891494751,1000,1
333,quadbright,24.0,8,1,568.8600540161133,568.8581466674805,1455,1
334,quadbright,25.0,8,1,656.4249992370605,656.4168930053711,1209,1
335,quadbright,26.0,11,0,486.3770008087158,486.3770008087158,1073,1
336,quadbright,27.0,8,0,626.1699199676514,626.168966293335,1078,1
337,quadbright,28.0,16,0,953.3989429473877,953.3901214599609,1487,1
338,quadbright,29.0,14,0,459.98477935791016,459.98167991638184,996,1
339,quadbright,30.0,17,1,649.8963832855225,649.895191192627,1045,1
340,quadbright,5.0,2,0,65.29879570007324,691.4799213409424,1483,1
341,quadbright,6.0,5,1,65.52600860595703,583.3070278167725,1113,1
342,quadbright,7.0,2,0,67.55185127258301,791.5639877319336,1446,1
343,quadbright,8.0,5,0,99.64299201965332,630.8190822601318,833,1
344,quadbright,9.0,5,0,691.2529468536377,691.2472248077393,912,1
345,quadbright,10.0,5,1,660.1107120513916,660.1097583770752,927,1
346,quadbright,11.0,11,1,459.75804328918457,459.75494384765625,1180,1
347,quadbright,12.0,14,1,428.555965423584,428.5459518432617,917,1
348,quadbright,13.0,11,1,416.37182235717773,416.37110710144043,1234,1
349,quadbright,14.0,11,1,535.2339744567871,535.2230072021484,976,1
350,quadbright,15.0,16,1,468.8870906829834,468.8849449157715,999,1
351,quadbright,16.0,14,1,498.9790916442871,498.9781379699707,1223,1
352,quadbright,17.0,8,0,822.998046875,822.9918479919434,1484,1
353,quadbright,18.0,11,1,658.8339805603027,658.8249206542969,1154,1
354,quadbright,19.0,12,1,558.927059173584,558.9251518249512,1110,1
355,quadbright,20.0,11,1,616.9209480285645,616.919994354248,1345,1
356,quadbright,21.0,11,1,661.1661911010742,661.1652374267578,886,1
357,quadbright,22.0,9,1,563.391923904419,563.3888244628906,1395,1
358,quadbright,23.0,11,1,550.5959987640381,550.5928993225098,912,1
359,quadbright,24.0,8,1,690.269947052002,690.2639865875244,1192,1
360,quadbright,25.0,8,1,780.9860706329346,780.9848785400391,1131,1
361,quadbright,26.0,12,0,790.8499240875244,790.8470630645752,1159,1
362,quadbright,27.0,11,0,495.08213996887207,495.0740337371826,948,1
363,quadbright,28.0,17,1,691.4839744567871,691.478967666626,1435,1
364,quadbright,29.0,15,1,582.6740264892578,582.6728343963623,1250,1
365,quadbright,30.0,17,1,461.3027572631836,461.3020420074463,1047,1
366,quadbright,5.0,5,1,294.3758964538574,294.3739891052246,1032,1
367,quadbright,6.0,5,1,65.20295143127441,428.4069538116455,882,1
368,quadbright,7.0,5,1,68.73512268066406,730.3259372711182,1131,1
369,quadbright,8.0,8,1,98.35004806518555,417.7250862121582,1358,1
370,quadbright,9.0,8,1,99.32518005371094,494.7640895843506,874,1
371,quadbright,10.0,5,0,624.4652271270752,624.4552135467529,1438,1
372,quadbright,11.0,11,0,496.39296531677246,496.39010429382324,1127,1
373,quadbright,12.0,12,1,525.994062423706,525.9921550750732,877,1
374,quadbright,13.0,10,1,329.4670581817627,329.4661045074463,997,1
375,quadbright,14.0,9,0,533.7090492248535,533.7069034576416,1091,1
376,quadbright,15.0,16,1,494.4009780883789,494.3959712982178,1148,1
377,quadbright,16.0,13,1,557.8370094299316,557.8339099884033,935,1
378,quadbright,17.0,9,1,483.87813568115234,483.87694358825684,971,1
379,quadbright,18.0,11,1,526.2773036956787,526.2730121612549,1388,1
380,quadbright,19.0,11,1,462.27502822875977,462.27288246154785,1312,1
381,quadbright,20.0,9,1,560.905933380127,560.9021186828613,1010,1
382,quadbright,21.0,9,1,635.5252265930176,635.5173587799072,992,1
383,quadbright,22.0,8,0,625.4398822784424,625.4379749298096,1000,1
384,quadbright,23.0,11,1,714.4660949707031,714.4651412963867,1487,1
385,quadbright,24.0,6,1,494.71402168273926,494.71282958984375,803,1
386,quadbright,25.0,6,0,647.5710868835449,647.5698947906494,971,1
387,quadbright,26.0,14,1,394.5798873901367,394.575834274292,1029,1
388,quadbright,27.0,14,1,464.04218673706055,464.04004096984863,862,1
389,quadbright,28.0,17,0,756.7100524902344,756.7071914672852,1338,1
390,quadbright,29.0,15,1,549.7970581054688,549.7970581054688,1453,1
391,quadbright,30.0,16,1,556.908130645752,556.908130645752,995,1
