trial,condition,eccentricity,magnitude,correct,srt_ms,keyboard_rt_ms,pre_change_ms,valid
1,control,5.0,25,1,66.73717498779297,367.60497093200684,1207,1
2,control,6.0,25,1,65.61112403869629,529.2599201202393,838,1
3,control,7.0,25,1,61.929941177368164,364.307165145874,1337,1
4,control,8.0,25,1,166.53203964233398,459.34414863586426,1345,1
5,control,9.0,25,1,525.0811576843262,525.0780582427979,822,1
6,control,10.0,25,1,65.15812873840332,360.6572151184082,1452,1
7,control,11.0,25,1,459.52582359313965,459.52415466308594,1055,1
8,control,12.0,25,1,466.54319763183594,466.5400981903076,1356,1
9,control,13.0,25,1,526.8580913543701,526.8559455871582,1065,1
10,control,14.0,25,1,427.08730697631836,427.0811080932617,1433,1
11,control,15.0,25,1,462.34822273254395,462.34607696533203,1183,1
12,control,16.0,25,1,461.45105361938477,461.44890785217285,1165,1
13,control,17.0,25,1,460.8159065246582,460.8137607574463,1325,1
14,control,18.0,25,1,529.3850898742676,529.3819904327393,1129,1
15,control,19.0,25,1,460.21199226379395,460.2091312408447,832,1
16,control,20.0,25,1,528.6650657653809,528.6619663238525,891,1
17,control,21.0,25,1,526.2241363525391,526.2138843536377,1137,1
18,control,22.0,25,1,459.92088317871094,459.9189758300781,886,1
19,control,23.0,25,1,525.5041122436523,525.5019664764404,982,1
20,control,24.0,25,1,669.3079471588135,669.3079471588135,1258,1
21,control,25.0,25,1,526.1709690093994,526.1659622192383,1073,1
22,control,26.0,25,1,533.562183380127,533.5590839385986,1137,1
23,control,27.0,25,1,531.1720371246338,531.1689376831055,1432,1
24,control,28.0,25,1,525.029182434082,525.0270366668701,1209,1
25,control,5.0,25,1,66.45607948303223,427.16312408447266,1499,1
26,control,6.0,25,1,63.044071197509766,527.3909568786621,1122,1
27,control,7.0,25,1,165.80510139465332,460.07299423217773,1454,1
28,control,8.0,25,1,525.2649784088135,525.2580642700195,848,1
29,control,9.0,25,1,66.48802757263184,526.0739326477051,941,1
30,control,10.0,25,1,523.4959125518799,523.4940052032471,974,1
31,control,11.0,25,1,458.5599899291992,458.5390090942383,1220,1
32,control,12.0,25,1,697.5481510162354,697.5440979003906,848,1
33,control,13.0,25,1,536.0567569732666,536.0550880432129,1406,1
34,control,14.0,25,1,532.0258140563965,532.0250988006592,1305,1
35,control,15.0,25,1,362.1029853820801,362.09917068481445,1144,1
36,control,16.0,25,1,363.523006439209,363.51990699768066,1078,1
37,control,17.0,25,1,463.61804008483887,463.61231803894043,1160,1
38,control,18.0,25,1,432.9838752746582,432.981014251709,868,1
39,control,19.0,25,1,528.6409854888916,528.6378860473633,929,1
40,control,20.0,25,1,362.00976371765137,361.9956970214844,983,1
41,control,21.0,25,1,525.1960754394531,525.1917839050293,1137,1
42,control,22.0,25,1,533.5752964019775,533.5710048675537,1037,1
43,control,23.0,25,1,532.0849418640137,532.0827960968018,1030,1
44,control,24.0,25,1,525.6137847900391,525.6118774414062,1392,1
45,control,25.0,25,1,526.2851715087891,526.2813568115234,1405,1
46,control,26.0,25,1,525.9759426116943,525.9671211242676,1210,1
47,control,27.0,25,1,532.8118801116943,532.8099727630615,1440,1
48,control,28.0,25,1,460.6599807739258,460.6518745422363,1099,1
49,control,5.0,22,1,66.42699241638184,462.54897117614746,822,1
50,control,6.0,22,1,165.2822494506836,524.7981548309326,1340,1
51,control,7.0,22,1,527.7199745178223,527.716875076294,1057,1
52,control,8.0,22,1,458.97698402404785,458.97483825683594,1370,1
53,control,9.0,22,1,164.01410102844238,592.4839973449707,870,1
54,control,10.0,22,1,163.0101203918457,462.3870849609375,1080,1
55,control,11.0,22,1,426.3617992401123,426.358699798584,920,1
56,control,12.0,22,1,531.268835067749,531.2678813934326,1369,1
57,control,13.0,22,1,526.3149738311768,526.310920715332,989,1
58,control,14.0,22,1,460.1612091064453,460.1590633392334,1320,1
59,control,15.0,22,1,360.2280616760254,360.2259159088135,1398,1
60,control,16.0,22,1,526.4379978179932,526.4360904693604,1061,1
61,control,17.0,22,1,460.0372314453125,460.0341320037842,1479,1
62,control,18.0,22,1,526.3040065765381,526.298999786377,1486,1
63,control,19.0,22,1,526.5991687774658,526.5960693359375,1267,1
64,control,20.0,22,1,520.4150676727295,520.4129219055176,1168,1
65,control,21.0,22,1,526.5328884124756,526.5281200408936,1006,1
66,control,22.0,22,1,520.4789638519287,520.4780101776123,1401,1
67,control,23.0,22,1,527.2641181945801,527.2622108459473,1448,1
68,control,24.0,22,1,527.4491310119629,527.4412631988525,1136,1
69,control,25.0,22,1,459.7642421722412,459.7623348236084,1009,1
70,control,26.0,22,1,424.93581771850586,424.9269962310791,1204,1
71,control,27.0,22,1,524.7330665588379,524.730920791626,1422,1
72,control,28.0,22,1,431.68115615844727,431.67924880981445,1250,1
73,control,5.0,22,1,165.6038761138916,590.2788639068604,1420,1
74,control,6.0,22,1,66.06698036193848,428.40003967285156,1040,1
75,control,7.0,22,1,66.0390853881836,362.6580238342285,865,1
76,control,8.0,22,1,66.37907028198242,460.47019958496094,992,1
77,control,9.0,22,1,528.2251834869385,528.2230377197266,1320,1
78,control,10.0,22,1,527.2812843322754,527.2791385650635,1317,1
79,control,11.0,22,1,428.725004196167,428.7219047546387,1036,1
80,control,12.0,22,1,360.9158992767334,360.9139919281006,950,1
81,control,13.0,22,1,529.0613174438477,529.0570259094238,822,1
82,control,14.0,22,1,590.770959854126,590.7690525054932,1436,1
83,control,15.0,22,1,368.61491203308105,368.61109733581543,1210,1
84,control,16.0,22,1,459.22088623046875,459.21778678894043,874,1
85,control,17.0,22,1,530.7719707489014,530.768871307373,1163,1
86,control,18.0,22,1,466.10307693481445,466.10093116760254,1154,1
87,control,19.0,22,1,461.22193336486816,461.21978759765625,1288,1
88,control,20.0,22,1,523.7698554992676,523.7681865692139,1151,1
89,control,21.0,22,1,362.0469570159912,362.0450496673584,1021,1
90,control,22.0,22,1,526.3853073120117,526.3831615447998,1272,1
91,control,23.0,22,1,523.5919952392578,523.5898494720459,1307,1
92,control,24.0,22,1,657.5894355773926,657.5872898101807,1067,1
93,control,25.0,22,1,462.8310203552246,462.82196044921875,858,1
94,control,26.0,22,1,527.2459983825684,527.2440910339355,1055,1
95,control,27.0,22,1,529.3831825256348,529.3800830841064,1231,1
96,control,28.0,22,0,759.1538429260254,759.1516971588135,1043,1
97,control,5.0,19,1,66.26582145690918,360.10074615478516,937,1
98,control,6.0,19,1,62.88576126098633,362.23888397216797,1273,1
99,control,7.0,19,1,64.59784507751465,526.8127918243408,1404,1
100,control,8.0,19,1,65.43684005737305,461.4558219909668,1392,1
101,control,9.0,19,1,520.6987857818604,520.6968784332275,1007,1
102,control,10.0,19,1,388.1099224090576,388.1080150604248,1151,1
103,control,11.0,19,1,435.4739189147949,435.471773147583,950,1
104,control,12.0,19,1,466.2320613861084,466.2280082702637,936,1
105,control,13.0,19,1,527.8337001800537,527.8298854827881,1128,1
106,control,14.0,19,1,363.7268543243408,363.7218475341797,1236,1
107,control,15.0,19,1,458.32085609436035,458.31894874572754,1449,1
108,control,16.0,19,1,535.6118679046631,535.6087684631348,861,1
109,control,17.0,19,1,528.6109447479248,528.6059379577637,969,1
110,control,18.0,19,1,1054.368019104004,1054.366111755371,1089,1
111,control,19.0,19,1,526.6187191009521,526.6170501708984,1425,1
112,control,20.0,19,1,527.7190208435059,527.7140140533447,1500,1
113,control,21.0,19,1,527.9767513275146,527.9748439788818,1304,1
114,control,22.0,19,1,467.23198890686035,467.22888946533203,1021,1
115,control,23.0,19,1,525.9251594543457,525.9220600128174,1137,1
116,control,24.0,19,1,530.4889678955078,530.4849147796631,812,1
117,control,25.0,19,1,691.0958290100098,691.093921661377,1414,1
118,control,26.0,19,1,525.6917476654053,525.688886642456,1347,1
119,control,27.0,19,1,591.8147563934326,591.8128490447998,801,1
120,control,28.0,25,1,425.1260757446289,425.1241683959961,1042,1
121,control,5.0,19,1,167.05775260925293,525.8727073669434,1315,1
122,control,6.0,19,1,71.20203971862793,533.2009792327881,808,1
123,control,7.0,19,1,66.82085990905762,526.7479419708252,1200,1
124,control,8.0,19,1,101.09519958496094,396.89016342163086,1446,1
125,control,9.0,19,1,432.8577518463135,432.85465240478516,906,1
126,control,10.0,19,1,435.35494804382324,435.3518486022949,992,1
127,control,11.0,19,1,526.2308120727539,526.2279510498047,880,1
128,control,12.0,19,1,461.7280960083008,461.7152214050293,1461,1
129,control,13.0,19,1,460.9410762786865,460.9379768371582,1004,1
130,control,14.0,19,1,528.9180278778076,528.9158821105957,1004,1
131,control,15.0,19,1,365.60630798339844,365.6041622161865,1482,1
132,control,16.0,19,1,427.9439449310303,427.94084548950195,1456,1
133,control,17.0,19,1,461.5130424499512,461.51089668273926,876,1
134,control,18.0,19,1,463.6402130126953,463.6380672454834,1354,1
135,control,19.0,19,1,426.30815505981445,426.30505561828613,1493,1
136,control,20.0,19,1,361.1891269683838,361.1869812011719,1268,1
137,control,21.0,19,1,527.130126953125,527.1282196044922,984,1
138,control,22.0,19,1,527.5630950927734,527.5602340698242,1229,1
139,control,23.0,19,1,526.6449451446533,526.6389846801758,1383,1
140,control,24.0,19,1,531.5549373626709,531.5539836883545,1473,1
141,control,25.0,19,1,532.5171947479248,532.5150489807129,951,1
142,control,26.0,19,1,525.3009796142578,525.2978801727295,830,1
143,control,27.0,19,1,458.9669704437256,458.96387100219727,1307,1
144,control,28.0,25,1,759.78684425354,759.7849369049072,887,1
145,control,5.0,16,1,99.03216361999512,460.3090286254883,1383,1
146,control,6.0,16,1,70.46318054199219,531.6641330718994,1148,1
147,control,7.0,16,1,65.71698188781738,525.9120464324951,1285,1
148,control,8.0,16,1,526.108980178833,526.1070728302002,1350,1
149,control,9.0,16,1,296.8020439147949,426.926851272583,1265,1
150,control,10.0,16,1,460.9239101409912,460.9220027923584,1406,1
151,control,11.0,16,1,459.53893661499023,459.5370292663574,1305,1
152,control,12.0,16,1,464.96105194091797,464.95890617370605,897,1
153,control,13.0,16,1,425.40884017944336,425.4028797149658,1425,1
154,control,14.0,16,1,531.4569473266602,531.4521789550781,1002,1
155,control,15.0,16,1,525.97975730896,525.9766578674316,1490,1
156,control,16.0,16,1,459.8839282989502,459.881067276001,1021,1
157,control,17.0,16,1,524.8949527740479,524.893045425415,1424,1
158,control,18.0,16,1,526.7109870910645,526.7078876495361,1441,1
159,control,19.0,16,1,362.0479106903076,362.0450496673584,1394,1
160,control,20.0,16,1,458.6169719696045,458.6160182952881,1440,1
161,control,21.0,16,1,526.299238204956,526.2970924377441,934,1
162,control,22.0,16,1,466.6738510131836,466.6719436645508,1411,1
163,control,23.0,16,1,522.395133972168,522.3941802978516,1033,1
164,control,24.0,16,1,526.4987945556641,526.496171951294,1036,1
165,control,25.0,16,1,525.8879661560059,525.8848667144775,1233,1
166,control,26.0,16,1,561.5520477294922,561.5501403808594,1022,1
167,control,27.0,16,1,757.18092918396,757.178783416748,1077,1
168,control,28.0,23,1,458.56213569641113,458.5599899291992,1376,1
169,control,5.0,16,1,64.57710266113281,526.6580581665039,1055,1
170,control,6.0,16,1,96.40979766845703,526.6308784484863,807,1
171,control,7.0,16,1,62.61706352233887,527.4322032928467,1169,1
172,control,8.0,16,1,361.5100383758545,361.50407791137695,1285,1
173,control,9.0,16,1,530.8611392974854,530.8582782745361,1168,1
174,control,10.0,16,1,594.4569110870361,594.451904296875,882,1
175,control,11.0,16,1,528.1970500946045,528.188943862915,1284,1
176,control,12.0,16,1,535.6111526489258,535.6061458587646,1006,1
177,control,13.0,16,1,427.95801162719727,427.95586585998535,1442,0
178,control,13.0,16,1,527.0469188690186,527.0438194274902,890,1
179,control,14.0,16,1,525.2699851989746,525.2678394317627,901,1
180,control,15.0,16,1,527.0781517028809,527.0719528198242,1011,1
181,control,16.0,16,1,527.83203125,527.8277397155762,1090,1
182,control,17.0,16,1,526.9041061401367,526.8981456756592,1479,1
183,control,18.0,16,1,367.36512184143066,367.3572540283203,1213,1
184,control,19.0,16,1,460.21294593811035,460.2067470550537,921,1
185,control,20.0,16,1,529.3877124786377,529.3858051300049,1112,1
186,control,21.0,16,1,426.0389804840088,426.03325843811035,967,1
187,control,22.0,16,1,460.47115325927734,460.4659080505371,1339,1
188,control,23.0,16,1,462.14890480041504,462.1469974517822,914,1
189,control,24.0,16,1,527.9312133789062,527.9281139373779,806,1
190,control,25.0,16,1,460.4499340057373,460.4480266571045,819,1
191,control,26.0,16,1,530.7989120483398,530.7960510253906,1297,1
192,control,27.0,16,1,692.0781135559082,692.0759677886963,845,1
193,control,28.0,23,0,759.645938873291,759.6440315246582,1059,1
194,control,5.0,13,1,66.5290355682373,362.36119270324707,985,1
195,control,6.0,13,1,65.6428337097168,361.8028163909912,896,1
196,control,7.0,13,1,165.24887084960938,526.0679721832275,1471,1
197,control,8.0,13,1,99.09915924072266,397.11713790893555,911,1
198,control,9.0,13,1,364.98379707336426,364.98212814331055,1007,1
199,control,10.0,13,1,364.609956741333,364.6068572998047,1020,1
200,control,11.0,13,1,461.58623695373535,461.58409118652344,1395,1
201,control,12.0,13,1,459.6400260925293,459.6378803253174,831,1
202,control,13.0,13,1,468.31583976745605,468.31393241882324,805,1
203,control,14.0,13,1,530.5032730102539,530.4992198944092,1275,1
204,control,15.0,13,1,526.6709327697754,526.6680717468262,1199,1
205,control,16.0,13,1,460.7241153717041,460.71600914001465,1026,1
206,control,17.0,13,1,592.4968719482422,592.4959182739258,891,1
207,control,18.0,13,1,593.5208797454834,593.5180187225342,1400,1
208,control,19.0,13,1,598.5369682312012,598.5338687896729,813,1
209,control,20.0,13,1,626.594066619873,626.5912055969238,1114,1
210,control,21.0,13,1,527.7502536773682,527.7481079101562,878,1
211,control,22.0,13,1,592.1890735626221,592.1859741210938,1490,1
212,control,23.0,13,0,1186.4902973175049,1186.488151550293,1316,1
213,control,24.0,13,1,589.8520946502686,589.8501873016357,1096,1
214,control,25.0,13,1,592.0610427856445,592.0579433441162,911,1
215,control,26.0,13,1,600.640058517456,600.6381511688232,866,1
216,control,27.0,13,1,594.8600769042969,594.857931137085,1343,1
217,control,28.0,25,1,794.8942184448242,794.8911190032959,976,1
218,control,5.0,13,1,197.8311538696289,920.7661151885986,1438,1
219,control,6.0,13,1,197.74627685546875,585.4818820953369,1233,1
220,control,7.0,13,1,198.06528091430664,592.2942161560059,944,1
221,control,8.0,13,1,791.5060520172119,791.5050983428955,1259,1
222,control,9.0,13,1,601.5081405639648,601.5040874481201,987,1
223,control,10.0,13,1,593.7159061431885,593.7089920043945,996,1
224,control,11.0,13,1,593.28293800354,593.2810306549072,1259,1
225,control,12.0,13,1,592.918872833252,592.9160118103027,1363,1
226,control,13.0,13,1,588.1538391113281,588.1528854370117,1451,1
227,control,14.0,13,1,593.609094619751,593.6059951782227,1149,1
228,control,15.0,13,1,594.1359996795654,594.1331386566162,1166,1
229,control,16.0,13,1,592.8020477294922,592.8010940551758,1014,1
230,control,17.0,13,1,592.5266742706299,592.5240516662598,1441,1
231,control,18.0,13,1,600.6600856781006,600.6529331207275,1157,1
232,control,19.0,13,0,621.1800575256348,621.178150177002,1298,1
233,control,20.0,13,1,521.4016437530518,521.4006900787354,1297,1
234,control,21.0,13,1,596.2710380554199,596.2691307067871,1110,1
235,control,22.0,13,1,802.2208213806152,802.2170066833496,1045,1
236,control,23.0,16,1,789.8588180541992,789.8566722869873,1085,1
237,control,24.0,13,1,601.6058921813965,601.6030311584473,1304,1
238,control,25.0,13,1,1122.6980686187744,1122.694969177246,1202,1
239,control,26.0,13,1,534.1413021087646,534.1382026672363,1231,1
240,control,27.0,13,1,593.559980392456,593.5578346252441,1494,1
241,control,28.0,25,1,594.5999622344971,594.5978164672852,1338,1
242,control,5.0,10,1,98.95896911621094,458.93311500549316,865,1
243,control,6.0,10,1,96.17805480957031,458.8742256164551,1182,1
244,control,7.0,10,1,103.24597358703613,563.5559558868408,1434,1
245,control,8.0,10,1,197.4029541015625,556.3428401947021,1458,1
246,control,9.0,10,1,462.0859622955322,462.083101272583,1462,1
247,control,10.0,10,1,465.3198719024658,465.3167724609375,1050,1
248,control,11.0,10,1,557.5761795043945,557.5709342956543,1274,1
249,control,12.0,10,1,822.7438926696777,822.7410316467285,837,1
250,control,13.0,10,1,1944.7951316833496,1944.7882175445557,1118,1
251,control,14.0,10,1,559.002161026001,558.9959621429443,819,1
252,control,15.0,10,1,822.9198455810547,822.9179382324219,1216,1
253,control,16.0,10,1,559.5431327819824,559.5412254333496,1084,1
254,control,17.0,10,1,536.247968673706,536.2460613250732,1008,1
255,control,18.0,10,1,560.7469081878662,560.7450008392334,895,1
256,control,19.0,16,1,458.7068557739258,458.70280265808105,1118,1
257,control,20.0,10,1,656.4688682556152,656.4669609069824,986,1
258,control,21.0,10,1,1384.8459720611572,1384.8440647125244,1084,1
259,control,22.0,10,1,632.3671340942383,632.36403465271,1090,1
260,control,23.0,16,1,559.736967086792,559.7350597381592,929,1
261,control,24.0,10,0,1187.312126159668,1187.3068809509277,1333,1
262,control,25.0,10,0,930.9029579162598,930.8950901031494,1183,1
263,control,26.0,10,1,658.2138538360596,658.210039138794,1321,1
264,control,27.0,10,0,658.9150428771973,658.9140892028809,1281,1
265,control,28.0,24,1,657.2167873382568,657.2139263153076,919,1
266,control,5.0,10,1,99.54690933227539,460.59608459472656,1102,1
267,control,6.0,10,1,94.71011161804199,463.5300636291504,1439,1
268,control,7.0,10,1,103.09195518493652,460.16812324523926,1495,1
269,control,8.0,10,1,732.835054397583,732.8319549560547,1334,1
270,control,9.0,10,1,527.6319980621338,527.630090713501,1277,1
271,control,10.0,10,1,461.05217933654785,461.05003356933594,1142,1
272,control,11.0,10,1,460.75987815856934,460.7579708099365,878,1
273,control,12.0,10,1,559.8809719085693,559.8769187927246,1265,1
274,control,13.0,10,1,629.5812129974365,629.5790672302246,1497,1
275,control,14.0,10,1,529.0369987487793,529.033899307251,1384,1
276,control,15.0,10,1,625.8077621459961,625.8058547973633,1453,1
277,control,16.0,10,1,559.1490268707275,559.1442584991455,1195,1
278,control,17.0,10,1,558.9888095855713,558.9859485626221,909,1
279,control,18.0,10,1,659.4150066375732,659.4128608703613,1277,1
280,control,19.0,16,1,457.5340747833252,457.5319290161133,1013,1
281,control,20.0,10,1,528.9130210876465,528.9108753204346,862,1
282,control,21.0,10,1,625.9961128234863,625.993013381958,1419,1
283,control,22.0,10,1,1023.8399505615234,1023.8382816314697,899,1
284,control,23.0,14,1,725.1958847045898,725.1949310302734,1256,1
285,control,24.0,13,1,922.2421646118164,922.2390651702881,1180,1
286,control,25.0,13,1,626.2519359588623,626.248836517334,1328,1
287,control,26.0,10,1,558.6678981781006,558.6659908294678,1496,1
288,control,27.0,13,1,658.470869064331,658.4680080413818,1325,1
289,control,28.0,24,1,824.5601654052734,824.5561122894287,828,1
290,control,5.0,7,1,98.41108322143555,559.6261024475098,815,1
291,control,6.0,7,1,98.68693351745605,459.63001251220703,1010,1
292,control,7.0,7,1,197.62706756591797,821.1979866027832,1036,1
293,control,8.0,7,1,528.0098915100098,527.9991626739502,936,1
294,control,9.0,7,1,728.9619445800781,728.9600372314453,903,1
295,control,10.0,7,1,535.1810455322266,535.1788997650146,1068,1
296,control,11.0,7,1,560.9800815582275,560.9772205352783,976,1
297,control,12.0,7,1,567.68798828125,567.6860809326172,1093,1
298,control,13.0,7,1,666.1810874938965,666.1748886108398,1225,1
299,control,14.0,7,1,527.79221534729,527.7900695800781,1272,1
300,control,15.0,7,1,626.5599727630615,626.5478134155273,1410,1
301,control,16.0,7,1,534.1591835021973,534.156084060669,1070,1
302,control,17.0,7,1,650.4702568054199,650.468111038208,1262,1
303,control,18.0,7,0,1026.8559455871582,1026.8542766571045,1276,1
304,control,19.0,14,1,559.6621036529541,559.6568584442139,1068,1
305,control,20.0,7,1,625.1709461212158,625.1649856567383,870,1
306,control,21.0,7,1,524.0828990936279,524.0809917449951,1065,1
307,control,22.0,7,1,1120.9239959716797,1120.9211349487305,1368,1
308,control,23.0,14,1,527.7049541473389,527.7020931243896,817,1
309,control,24.0,13,1,424.33691024780273,424.3357181549072,1412,1
310,control,25.0,13,1,733.2768440246582,733.2737445831299,1036,1
311,control,26.0,7,0,722.4512100219727,722.4471569061279,821,1
312,control,27.0,13,1,553.4262657165527,553.4250736236572,1154,1
313,control,28.0,23,0,724.9951362609863,724.9908447265625,836,1
314,control,5.0,7,1,66.18189811706543,533.9429378509521,837,1
315,control,6.0,7,1,133.32200050354004,462.6901149749756,1188,1
316,control,7.0,7,1,167.7381992340088,726.4461517333984,852,1
317,control,8.0,7,1,101.72009468078613,569.3039894104004,1394,1
318,control,9.0,7,1,556.7460060119629,556.7429065704346,941,1
319,control,10.0,7,1,572.4349021911621,572.4327564239502,1313,1
320,control,11.0,7,1,560.0950717926025,560.0931644439697,1270,1
321,control,12.0,7,1,533.898115158081,533.8950157165527,1167,1
322,control,13.0,7,1,665.3270721435547,665.3249263763428,821,1
323,control,14.0,7,1,430.46092987060547,430.45616149902344,892,1
324,control,15.0,7,1,568.3839321136475,568.3808326721191,1103,1
325,control,16.0,7,1,1385.0798606872559,1385.0769996643066,1177,1
326,control,17.0,7,1,824.3839740753174,824.3799209594727,885,1
327,control,18.0,10,1,624.0739822387695,624.0720748901367,1230,1
328,control,19.0,14,1,559.8340034484863,559.8301887512207,1321,1
329,control,20.0,7,0,658.9500904083252,658.9479446411133,1416,1
330,control,21.0,7,1,728.3129692077637,728.308916091919,963,1
331,control,22.0,7,1,624.5958805084229,624.59397315979,1433,1
332,control,23.0,13,1,559.8440170288086,559.8418712615967,963,1
333,control,24.0,11,1,727.1637916564941,727.1590232849121,1190,1
334,control,25.0,11,1,527.2257328033447,527.224063873291,1103,1
335,control,26.0,10,1,828.5858631134033,828.5841941833496,1205,1
336,control,27.0,11,1,730.679988861084,730.6759357452393,1086,1
337,control,28.0,24,1,666.8350696563721,666.8329238891602,1423,1
338,control,5.0,4,1,100.44169425964355,460.0708484649658,1348,1
339,control,6.0,4,1,100.62384605407715,757.1780681610107,983,1
340,control,7.0,4,1,99.26390647888184,558.5331916809082,920,1
341,control,8.0,4,1,98.9370346069336,565.2341842651367,1400,1
342,control,9.0,4,1,825.2899646759033,825.286865234375,1210,1
343,control,10.0,4,1,821.7861652374268,821.7830657958984,1028,1
344,control,11.0,4,1,819.4522857666016,819.4491863250732,1460,1
345,control,12.0,4,1,616.0919666290283,616.0910129547119,989,1
346,control,13.0,4,1,822.580099105835,822.5719928741455,1211,1
347,control,14.0,4,0,660.0532531738281,660.0520610809326,1349,0
348,control,14.0,4,0,1386.2850666046143,1386.281967163086,1135,1
349,control,15.0,4,0,825.3839015960693,825.3800868988037,995,1
350,control,16.0,4,1,735.7439994812012,735.7399463653564,848,1
351,control,17.0,4,1,758.4867477416992,758.4850788116455,1019,1
352,control,18.0,10,0,665.1692390441895,665.1649475097656,1397,1
353,control,19.0,13,1,724.250078201294,724.2481708526611,1362,1
354,control,20.0,10,1,1711.961030960083,1711.9591236114502,953,1
355,control,21.0,4,0,1186.3412857055664,1186.3391399383545,1041,1
356,control,22.0,4,1,822.5188255310059,822.5159645080566,978,1
357,control,23.0,13,1,757.5130462646484,757.5111389160156,839,1
358,control,24.0,11,1,1119.7662353515625,1119.7621822357178,1372,1
359,control,25.0,11,1,928.6689758300781,928.6661148071289,1359,1
360,control,26.0,10,1,722.5050926208496,722.5000858306885,921,1
361,control,27.0,11,1,526.7882347106934,526.7813205718994,1040,1
362,control,28.0,24,1,558.1097602844238,558.107852935791,1133,1
1,quadbright,5.0,25,1,66.97702407836914,362.2739315032959,1254,1
2,quadbright,6.0,25,1,63.01307678222656,527.716875076294,1246,1
3,quadbright,7.0,25,1,66.44201278686523,527.3447036743164,1109,1
4,quadbright,8.0,25,1,66.84494018554688,527.0028114318848,931,1
5,quadbright,9.0,25,1,365.3707504272461,365.36383628845215,935,1
6,quadbright,10.0,25,1,520.7328796386719,520.7321643829346,1215,1
7,quadbright,11.0,25,1,466.42279624938965,466.418981552124,1457,1
8,quadbright,12.0,25,1,527.1091461181641,527.1060466766357,1017,1
9,quadbright,13.0,25,1,431.63394927978516,431.6296577453613,1190,1
10,quadbright,14.0,25,1,361.63973808288574,361.6368770599365,1125,1
11,quadbright,15.0,25,1,461.03930473327637,461.03715896606445,1217,1
12,quadbright,16.0,25,1,363.5110855102539,363.5091781616211,985,1
13,quadbright,17.0,25,1,528.1839370727539,528.1782150268555,1091,1
14,quadbright,18.0,25,1,531.1319828033447,531.1229228973389,1196,1
15,quadbright,19.0,25,1,525.1381397247314,525.1350402832031,1147,1
16,quadbright,20.0,25,1,535.0520610809326,535.0489616394043,1459,1
17,quadbright,21.0,25,1,526.453971862793,526.4511108398438,1486,1
18,quadbright,22.0,25,1,524.5389938354492,524.5370864868164,1388,1
19,quadbright,23.0,25,1,525.2141952514648,525.2110958099365,1258,1
20,quadbright,24.0,25,1,462.48602867126465,462.48316764831543,1086,1
21,quadbright,25.0,25,1,528.5651683807373,528.562068939209,805,1
22,quadbright,26.0,25,1,753.3466815948486,753.3457279205322,941,1
23,quadbright,27.0,25,0,1217.4012660980225,1217.400074005127,1479,1
24,quadbright,28.0,25,1,758.1048011779785,758.1009864807129,1247,1
25,quadbright,5.0,25,1,65.52982330322266,527.3969173431396,883,1
26,quadbright,6.0,25,1,66.08009338378906,460.93201637268066,1070,1
27,quadbright,7.0,25,1,64.81695175170898,428.32064628601074,1260,1
28,quadbright,8.0,25,1,462.1732234954834,462.1710777282715,1074,1
29,quadbright,9.0,25,1,164.40796852111816,528.9969444274902,1067,1
30,quadbright,10.0,25,1,428.5280704498291,428.5268783569336,1194,1
31,quadbright,11.0,25,1,526.8881320953369,526.8852710723877,1261,1
32,quadbright,12.0,25,1,361.9236946105957,361.9189262390137,809,1
33,quadbright,13.0,25,1,360.86225509643555,360.8591556549072,1031,1
34,quadbright,14.0,25,1,460.4799747467041,460.4778289794922,1404,1
35,quadbright,15.0,25,1,595.3769683837891,595.3748226165771,835,1
36,quadbright,16.0,25,1,428.386926651001,428.38382720947266,1277,1
37,quadbright,17.0,25,1,460.01625061035156,460.01410484313965,1341,1
38,quadbright,18.0,25,1,466.0780429840088,466.07494354248047,1479,1
39,quadbright,19.0,25,1,461.0869884490967,461.08412742614746,1367,1
40,quadbright,20.0,25,1,421.08798027038574,421.0858345031738,1065,1
41,quadbright,21.0,25,1,531.580924987793,531.5780639648438,1091,1
42,quadbright,22.0,25,1,527.8189182281494,527.8141498565674,1147,1
43,quadbright,23.0,25,1,526.5328884124756,526.5271663665771,1178,1
44,quadbright,24.0,25,1,531.6159725189209,531.6119194030762,1378,1
45,quadbright,25.0,25,1,526.2060165405273,526.202917098999,967,1
46,quadbright,26.0,25,1,533.332109451294,533.3249568939209,1115,1
47,quadbright,27.0,28,1,1054.7730922698975,1054.7678470611572,825,1
48,quadbright,28.0,25,1,529.879093170166,529.8769474029541,1331,1
49,quadbright,5.0,22,1,68.10331344604492,532.2232246398926,1079,1
50,quadbright,6.0,22,1,66.15829467773438,459.7020149230957,1324,1
51,quadbright,7.0,22,1,165.61102867126465,462.1000289916992,816,1
52,quadbright,8.0,22,1,525.9628295898438,525.9590148925781,947,0
53,quadbright,8.0,22,1,525.7871150970459,525.7852077484131,1039,1
54,quadbright,9.0,22,1,531.9743156433105,531.9712162017822,1190,1
55,quadbright,10.0,22,1,527.2130966186523,527.2109508514404,1491,1
56,quadbright,11.0,22,1,525.6409645080566,525.6383419036865,1217,1
57,quadbright,12.0,22,1,526.3798236846924,526.3769626617432,1457,1
58,quadbright,13.0,22,1,527.3511409759521,527.3489952087402,1200,1
59,quadbright,14.0,22,1,526.7431735992432,526.7410278320312,1363,1
60,quadbright,15.0,22,1,534.0280532836914,534.0237617492676,1190,1
61,quadbright,16.0,22,1,362.1642589569092,362.16020584106445,1217,1
62,quadbright,17.0,22,1,536.2288951873779,536.2260341644287,804,1
63,quadbright,18.0,22,1,527.3048877716064,527.2998809814453,1090,1
64,quadbright,19.0,22,1,461.35807037353516,461.35401725769043,1192,1
65,quadbright,20.0,22,1,529.4249057769775,529.4208526611328,1479,1
66,quadbright,21.0,22,1,526.9088745117188,526.9057750701904,891,1
67,quadbright,22.0,22,1,527.2209644317627,527.2190570831299,1191,1
68,quadbright,23.0,22,1,1054.5589923858643,1054.5527935028076,1112,1
69,quadbright,24.0,22,1,750.0181198120117,750.0169277191162,1126,1
70,quadbright,25.0,22,1,527.1430015563965,527.1410942077637,1496,1
71,quadbright,26.0,22,1,756.4289569854736,756.4280033111572,1399,1
72,quadbright,27.0,28,1,524.9569416046143,524.9509811401367,1109,1
73,quadbright,28.0,22,1,529.1430950164795,529.1380882263184,968,1
74,quadbright,5.0,22,1,66.55192375183105,461.2910747528076,832,1
75,quadbright,6.0,22,1,64.93687629699707,528.6848545074463,1432,1
76,quadbright,7.0,22,1,158.1718921661377,527.3058414459229,1133,1
77,quadbright,8.0,22,1,460.8290195465088,460.82186698913574,1102,1
78,quadbright,9.0,22,1,527.3289680480957,527.3268222808838,1416,1
79,quadbright,10.0,22,1,369.2898750305176,369.28677558898926,1355,1
80,quadbright,11.0,22,1,458.81032943725586,458.8050842285156,833,1
81,quadbright,12.0,22,1,528.3410549163818,528.3370018005371,856,1
82,quadbright,13.0,22,1,531.9128036499023,531.9066047668457,1424,1
83,quadbright,14.0,22,1,362.3311519622803,362.32805252075195,1341,1
84,quadbright,15.0,22,1,371.34814262390137,371.34599685668945,1332,1
85,quadbright,16.0,22,1,460.4930877685547,460.4911804199219,1103,1
86,quadbright,17.0,22,1,529.8120975494385,529.8099517822266,1242,1
87,quadbright,18.0,22,1,527.5928974151611,527.5897979736328,899,1
88,quadbright,19.0,22,1,464.2050266265869,464.2031192779541,868,1
89,quadbright,20.0,22,1,524.1191387176514,524.1169929504395,1253,1
90,quadbright,21.0,22,1,527.4989604949951,527.4970531463623,1324,1
91,quadbright,22.0,22,1,527.4829864501953,527.4789333343506,980,1
92,quadbright,23.0,22,1,827.7156352996826,827.7130126953125,864,1
93,quadbright,24.0,22,1,526.0417461395264,526.0400772094727,1286,1
94,quadbright,25.0,22,1,690.8557415008545,690.8540725708008,846,1
95,quadbright,26.0,22,1,1056.684970855713,1056.6818714141846,1179,1
96,quadbright,27.0,25,1,590.7347202301025,590.7320976257324,992,1
97,quadbright,28.0,22,1,528.0940532684326,528.0890464782715,1444,1
98,quadbright,5.0,19,1,65.90890884399414,527.5499820709229,1043,1
99,quadbright,6.0,19,1,64.5909309387207,428.77888679504395,1010,1
100,quadbright,7.0,19,1,65.70696830749512,426.6011714935303,1423,1
101,quadbright,8.0,19,1,458.9231014251709,458.9219093322754,800,1
102,quadbright,9.0,19,1,68.10688972473145,533.2727432250977,810,1
103,quadbright,10.0,19,1,421.43797874450684,421.4367866516113,1001,1
104,quadbright,11.0,19,1,532.9201221466064,532.9170227050781,1386,1
105,quadbright,12.0,19,1,525.9473323822021,525.9451866149902,1294,1
106,quadbright,13.0,19,1,429.34226989746094,429.3360710144043,896,1
107,quadbright,14.0,19,1,460.20007133483887,460.1938724517822,1282,1
108,quadbright,15.0,19,1,393.5818672180176,393.57471466064453,868,1
109,quadbright,16.0,19,1,526.7689228057861,526.7660617828369,996,1
110,quadbright,17.0,19,1,528.5928249359131,528.5906791687012,1270,1
111,quadbright,18.0,19,1,461.59982681274414,461.5979194641113,1117,1
112,quadbright,19.0,19,1,469.56515312194824,469.5608615875244,834,1
113,quadbright,20.0,19,1,364.0477657318115,364.0449047088623,1335,1
114,quadbright,21.0,19,1,523.4899520874023,523.4880447387695,1072,1
115,quadbright,22.0,19,1,527.5158882141113,527.5118350982666,1265,1
116,quadbright,23.0,19,1,527.2769927978516,527.2741317749023,1413,1
117,quadbright,24.0,19,1,526.1220932006836,526.1209011077881,876,1
118,quadbright,25.0,19,1,523.4239101409912,523.4220027923584,1500,1
119,quadbright,26.0,19,1,525.925874710083,525.9220600128174,1251,1
120,quadbright,27.0,25,1,1055.7951927185059,1055.7920932769775,1476,1
121,quadbright,28.0,19,1,658.4029197692871,658.4010124206543,901,1
122,quadbright,5.0,19,1,157.63497352600098,524.040937423706,1147,1
123,quadbright,6.0,19,1,65.96088409423828,532.3657989501953,1096,1
124,quadbright,7.0,19,1,66.9550895690918,425.8270263671875,902,1
125,quadbright,8.0,19,1,67.25907325744629,1188.9441013336182,1200,1
126,quadbright,9.0,19,1,459.9950313568115,459.9931240081787,1410,1
127,quadbright,10.0,19,1,463.13977241516113,463.1328582763672,1098,1
128,quadbright,11.0,19,1,422.47557640075684,422.47486114501953,1281,1
129,quadbright,12.0,19,1,692.8768157958984,692.8749084472656,1461,1
130,quadbright,13.0,19,1,593.400239944458,593.3940410614014,1359,1
131,quadbright,14.0,19,1,361.9718551635742,361.9699478149414,1268,1
132,quadbright,15.0,19,1,426.50794982910156,426.50604248046875,1249,1
133,quadbright,16.0,19,1,431.5779209136963,431.57386779785156,1408,1
134,quadbright,17.0,19,1,528.0022621154785,527.9991626739502,1175,1
135,quadbright,18.0,19,1,362.227201461792,362.22314834594727,1162,1
136,quadbright,19.0,19,1,461.7137908935547,461.70878410339355,1338,1
137,quadbright,20.0,19,1,421.4777946472168,421.4770793914795,1256,1
138,quadbright,21.0,19,1,531.1870574951172,531.1822891235352,1484,1
139,quadbright,22.0,19,1,592.3631191253662,592.3619270324707,879,1
140,quadbright,23.0,19,1,523.8032341003418,523.7970352172852,1317,1
141,quadbright,24.0,19,1,363.2349967956543,363.22712898254395,942,1
142,quadbright,25.0,19,1,529.832124710083,529.8299789428711,997,1
143,quadbright,26.0,19,1,456.29405975341797,456.29310607910156,1094,1
144,quadbright,27.0,22,1,526.7348289489746,526.7331600189209,1092,1
145,quadbright,28.0,19,1,528.7530422210693,528.7508964538574,983,1
146,quadbright,5.0,16,1,67.69990921020508,524.6238708496094,828,1
147,quadbright,6.0,16,1,65.39297103881836,529.9861431121826,1228,1
148,quadbright,7.0,16,1,63.65489959716797,361.3779544830322,925,1
149,quadbright,8.0,16,1,63.92383575439453,533.4348678588867,1264,1
150,quadbright,9.0,16,1,592.6797389984131,592.6778316497803,873,1
151,quadbright,10.0,16,1,361.48715019226074,361.4850044250488,1110,1
152,quadbright,11.0,16,1,530.4911136627197,530.4889678955078,1258,1
153,quadbright,12.0,16,1,362.69378662109375,362.69092559814453,1331,1
154,quadbright,13.0,16,1,528.6741256713867,528.6710262298584,1363,1
155,quadbright,14.0,16,1,358.5851192474365,358.5841655731201,1198,1
156,quadbright,15.0,16,1,426.39899253845215,426.3920783996582,1272,1
157,quadbright,16.0,16,1,430.06300926208496,430.04512786865234,1370,1
158,quadbright,17.0,16,1,525.1710414886475,525.1641273498535,885,1
159,quadbright,18.0,16,1,525.846004486084,525.8402824401855,1089,1
160,quadbright,19.0,16,1,538.3901596069336,538.3870601654053,809,1
161,quadbright,20.0,16,1,461.5156650543213,461.5139961242676,894,1
162,quadbright,21.0,16,1,460.5696201324463,460.56580543518066,843,1
163,quadbright,22.0,16,1,533.898115158081,533.8950157165527,1283,1
164,quadbright,23.0,16,1,427.25300788879395,427.25110054016113,1201,1
165,quadbright,24.0,16,1,529.6669006347656,529.6580791473389,967,1
166,quadbright,25.0,16,1,528.8970470428467,528.892993927002,1152,1
167,quadbright,26.0,16,1,526.2558460235596,526.2537002563477,1176,1
168,quadbright,27.0,22,1,523.813009262085,523.8101482391357,1164,1
169,quadbright,28.0,16,1,698.1120109558105,698.1101036071777,1321,1
170,quadbright,5.0,16,1,66.12515449523926,521.1491584777832,1204,1
171,quadbright,6.0,16,1,58.13193321228027,458.9579105377197,1234,1
172,quadbright,7.0,16,1,68.1772232055664,655.0400257110596,1217,1
173,quadbright,8.0,16,1,461.881160736084,461.87901496887207,1370,1
174,quadbright,9.0,16,1,66.30301475524902,529.0031433105469,987,1
175,quadbright,10.0,16,1,524.6987342834473,524.6939659118652,1056,1
176,quadbright,11.0,16,1,530.9371948242188,530.933141708374,1190,1
177,quadbright,12.0,16,1,359.3771457672119,359.3752384185791,1090,1
178,quadbright,13.0,16,1,1186.0969066619873,1186.094045639038,1329,1
179,quadbright,14.0,16,1,526.777982711792,526.7729759216309,1493,1
180,quadbright,15.0,16,1,430.41014671325684,430.405855178833,879,1
181,quadbright,16.0,16,1,527.5928974151611,527.5897979736328,1153,1
182,quadbright,17.0,16,1,363.1291389465332,363.1260395050049,925,1
183,quadbright,18.0,16,1,460.4148864746094,460.41297912597656,1226,1
184,quadbright,19.0,16,1,525.77805519104,525.7759094238281,1494,1
185,quadbright,20.0,16,1,435.83106994628906,435.82797050476074,1194,1
186,quadbright,21.0,16,1,690.833330154419,690.831184387207,946,1
187,quadbright,22.0,16,1,531.7137241363525,531.7108631134033,994,1
188,quadbright,23.0,16,1,459.5458507537842,459.54108238220215,1256,1
189,quadbright,24.0,16,1,592.1790599822998,592.1761989593506,950,1
190,quadbright,25.0,16,1,462.0499610900879,462.0471000671387,1389,1
191,quadbright,26.0,16,1,759.3710422515869,759.3679428100586,915,1
192,quadbright,27.0,19,1,395.7669734954834,395.7638740539551,1087,1
193,quadbright,28.0,16,1,522.6171016693115,522.6161479949951,1231,1
194,quadbright,5.0,13,1,65.90890884399414,364.90392684936523,1003,1
195,quadbright,6.0,13,1,66.84398651123047,369.1389560699463,1185,1
196,quadbright,7.0,13,1,198.87590408325195,598.0911254882812,836,1
197,quadbright,8.0,13,1,601.6800403594971,601.6769409179688,1056,1
198,quadbright,9.0,13,1,602.3890972137451,602.3859977722168,872,1
199,quadbright,10.0,13,1,599.9343395233154,599.9312400817871,1211,1
200,quadbright,11.0,13,1,625.8242130279541,625.8199214935303,1201,1
201,quadbright,12.0,13,1,522.860050201416,522.8581428527832,915,1
202,quadbright,13.0,13,1,533.858060836792,533.8561534881592,1491,1
203,quadbright,14.0,13,1,592.742919921875,592.7400588989258,1452,1
204,quadbright,15.0,13,1,586.8659019470215,586.8649482727051,829,1
205,quadbright,16.0,13,1,595.4523086547852,595.4492092132568,897,1
206,quadbright,17.0,13,1,594.5188999176025,594.5169925689697,1409,1
207,quadbright,18.0,13,1,523.4088897705078,523.4048366546631,1110,1
208,quadbright,19.0,13,1,599.8680591583252,599.8661518096924,1415,1
209,quadbright,20.0,13,1,598.7021923065186,598.7000465393066,1162,1
210,quadbright,21.0,13,1,797.8701591491699,797.8670597076416,833,1
211,quadbright,22.0,13,1,593.6620235443115,593.6598777770996,929,1
212,quadbright,23.0,13,1,785.4280471801758,785.426139831543,1468,1
213,quadbright,24.0,13,0,1514.2371654510498,1514.2343044281006,802,1
214,quadbright,25.0,13,1,592.3891067504883,592.3869609832764,1241,1
215,quadbright,26.0,13,1,791.0740375518799,791.0709381103516,1437,1
216,quadbright,27.0,19,1,597.5708961486816,597.5618362426758,1486,1
217,quadbright,28.0,13,0,795.8440780639648,795.842170715332,1194,1
218,quadbright,5.0,13,1,198.0421543121338,590.9991264343262,1036,1
219,quadbright,6.0,13,1,198.4398365020752,592.6399230957031,1134,1
220,quadbright,7.0,13,1,197.73197174072266,592.4830436706543,933,1
221,quadbright,8.0,13,1,593.2669639587402,593.2648181915283,1321,1
222,quadbright,9.0,13,1,636.5940570831299,636.5921497344971,1343,1
223,quadbright,10.0,13,1,592.6499366760254,592.6480293273926,1197,1
224,quadbright,11.0,13,1,526.4570713043213,526.4508724212646,968,1
225,quadbright,12.0,13,1,791.6741371154785,791.6710376739502,895,1
226,quadbright,13.0,13,1,590.7237529754639,590.721607208252,1460,1
227,quadbright,14.0,13,1,792.0360565185547,792.0341491699219,966,1
228,quadbright,15.0,13,1,592.9310321807861,592.9291248321533,1155,1
229,quadbright,16.0,13,1,598.1848239898682,598.181962966919,1117,1
230,quadbright,17.0,13,1,594.2080020904541,594.2058563232422,1214,1
231,quadbright,18.0,13,1,594.3419933319092,594.3398475646973,1188,1
232,quadbright,19.0,13,1,594.6359634399414,594.6331024169922,1289,1
233,quadbright,20.0,13,1,593.0068492889404,592.9989814758301,1132,1
234,quadbright,21.0,13,1,623.6112117767334,623.6090660095215,845,1
235,quadbright,22.0,13,1,1748.8629817962646,1748.8620281219482,1083,1
236,quadbright,23.0,13,0,1381.3130855560303,1381.3061714172363,1271,1
237,quadbright,24.0,16,1,626.2750625610352,626.2691020965576,1395,1
238,quadbright,25.0,13,0,1090.1308059692383,1090.1288986206055,1491,1
239,quadbright,26.0,13,0,920.2322959899902,920.2311038970947,1276,1
240,quadbright,27.0,16,1,626.1532306671143,626.1501312255859,1482,1
241,quadbright,28.0,16,0,724.7810363769531,724.7788906097412,1480,1
242,quadbright,5.0,10,1,100.22306442260742,660.3121757507324,992,1
243,quadbright,6.0,10,1,99.41315650939941,659.4161987304688,1052,1
244,quadbright,7.0,10,1,95.87931632995605,658.8761806488037,954,1
245,quadbright,8.0,10,1,164.84999656677246,625.1928806304932,1491,1
246,quadbright,9.0,10,1,656.9972038269043,656.994104385376,1268,1
247,quadbright,10.0,10,1,527.8162956237793,527.813196182251,1197,1
248,quadbright,11.0,10,1,829.8540115356445,829.8449516296387,888,1
249,quadbright,12.0,10,1,724.0269184112549,724.024772644043,1433,1
250,quadbright,13.0,10,1,361.42587661743164,361.4232540130615,1069,1
251,quadbright,14.0,10,1,758.8863372802734,758.8832378387451,1409,1
252,quadbright,15.0,10,1,1021.5702056884766,1021.569013595581,1272,1
253,quadbright,16.0,10,0,1022.1061706542969,1022.104024887085,1014,1
254,quadbright,17.0,10,1,657.0990085601807,657.0968627929688,1230,1
255,quadbright,18.0,10,1,824.517011642456,824.5139122009277,1463,1
256,quadbright,19.0,10,0,722.3269939422607,722.3248481750488,962,1
257,quadbright,20.0,10,1,827.0308971405029,827.0277976989746,1057,1
258,quadbright,21.0,10,1,630.9521198272705,630.9502124786377,1236,1
259,quadbright,22.0,10,0,1021.3217735290527,1021.317720413208,1335,1
260,quadbright,23.0,16,1,824.9578475952148,824.9509334564209,1436,1
261,quadbright,24.0,16,1,658.2348346710205,658.2326889038086,1101,1
262,quadbright,25.0,16,1,561.5799427032471,561.5780353546143,830,1
263,quadbright,26.0,16,1,632.5199604034424,632.519006729126,1023,1
264,quadbright,27.0,16,1,657.6998233795166,657.6967239379883,1454,1
265,quadbright,28.0,19,1,627.0730495452881,627.0642280578613,1360,1
266,quadbright,5.0,10,1,198.65012168884277,560.2700710296631,1471,1
267,quadbright,6.0,10,1,165.80891609191895,526.8409252166748,803,1
268,quadbright,7.0,10,1,105.58891296386719,564.8188591003418,1463,1
269,quadbright,8.0,10,1,65.37914276123047,525.1309871673584,951,1
270,quadbright,9.0,10,1,725.6882190704346,725.6860733032227,1097,1
271,quadbright,10.0,10,1,529.0312767028809,529.0250778198242,1342,1
272,quadbright,11.0,10,1,656.193733215332,656.1920642852783,1346,1
273,quadbright,12.0,10,1,823.3749866485596,823.3699798583984,1464,1
274,quadbright,13.0,10,1,528.5570621490479,528.5549163818359,1476,1
275,quadbright,14.0,10,1,921.8449592590332,921.8428134918213,1132,1
276,quadbright,15.0,10,1,719.0330028533936,719.0320491790771,1445,1
277,quadbright,16.0,13,1,458.953857421875,458.9519500732422,973,1
278,quadbright,17.0,10,1,658.1590175628662,658.1571102142334,807,1
279,quadbright,18.0,10,1,1120.2130317687988,1120.2068328857422,908,1
280,quadbright,19.0,13,1,659.2981815338135,659.2929363250732,1465,1
281,quadbright,20.0,10,1,921.1537837982178,921.1509227752686,1109,1
282,quadbright,21.0,10,1,823.2450485229492,823.2421875,1269,1
283,quadbright,22.0,13,1,1285.8810424804688,1285.876989364624,1308,1
284,quadbright,23.0,16,1,725.1508235931396,725.1482009887695,1258,1
285,quadbright,24.0,14,1,921.8049049377441,921.8020439147949,1488,1
286,quadbright,25.0,16,1,658.0190658569336,658.012866973877,1473,1
287,quadbright,26.0,16,1,460.5438709259033,460.5419635772705,1273,1
288,quadbright,27.0,13,1,564.3589496612549,564.3558502197266,1276,1
289,quadbright,28.0,19,1,565.2499198913574,565.2477741241455,1262,1
290,quadbright,5.0,7,1,102.59509086608887,666.1880016326904,1086,1
291,quadbright,6.0,7,1,99.06625747680664,559.4549179077148,810,1
292,quadbright,7.0,7,1,101.91893577575684,727.8618812561035,1286,1
293,quadbright,8.0,7,1,199.80287551879883,725.3091335296631,1214,1
294,quadbright,9.0,7,1,725.9640693664551,725.9609699249268,1457,1
295,quadbright,10.0,7,1,823.7409591674805,823.7390518188477,1415,1
296,quadbright,11.0,7,1,632.7629089355469,632.7610015869141,1075,1
297,quadbright,12.0,7,1,631.7379474639893,631.7360401153564,843,1
298,quadbright,13.0,7,1,558.9170455932617,558.9151382446289,1313,1
299,quadbright,14.0,7,1,721.3051319122314,721.3020324707031,863,1
300,quadbright,15.0,7,1,756.1290264129639,756.1261653900146,1274,1
301,quadbright,16.0,13,1,457.21912384033203,457.2172164916992,1201,1
302,quadbright,17.0,7,0,1082.9010009765625,1082.900047302246,1347,1
303,quadbright,18.0,7,1,566.1220550537109,566.1189556121826,1035,1
304,quadbright,19.0,13,1,428.5900592803955,428.58171463012695,1029,1
305,quadbright,20.0,7,0,1023.094892501831,1023.0917930603027,1086,1
306,quadbright,21.0,7,0,667.0048236846924,667.0010089874268,1297,1
307,quadbright,22.0,13,1,625.5836486816406,625.5807876586914,1464,1
308,quadbright,23.0,14,1,462.98813819885254,462.9850387573242,1440,1
309,quadbright,24.0,14,1,464.8399353027344,464.83802795410156,1215,1
310,quadbright,25.0,14,1,536.9369983673096,536.9348526000977,894,1
311,quadbright,26.0,14,1,824.0268230438232,824.0208625793457,1383,1
312,quadbright,27.0,13,0,757.1349143981934,757.1320533752441,1181,1
313,quadbright,28.0,17,0,925.3087043762207,925.3058433532715,1079,1
314,quadbright,5.0,7,1,98.5260009765625,554.6581745147705,1191,1
315,quadbright,6.0,7,1,101.85790061950684,567.7731037139893,1337,1
316,quadbright,7.0,7,1,264.7290229797363,559.3321323394775,1023,1
317,quadbright,8.0,7,1,99.22599792480469,566.957950592041,1071,1
318,quadbright,9.0,7,1,560.8289241790771,560.8270168304443,886,1
319,quadbright,10.0,7,1,558.9361190795898,558.9330196380615,1172,1
320,quadbright,11.0,7,1,431.2617778778076,431.2577247619629,973,1
321,quadbright,12.0,7,1,829.6349048614502,829.6327590942383,1301,1
322,quadbright,13.0,7,1,1186.1858367919922,1186.1839294433594,1188,1
323,quadbright,14.0,7,0,756.9601535797119,756.9580078125,941,1
324,quadbright,15.0,7,0,823.0698108673096,823.0650424957275,1032,1
325,quadbright,16.0,11,1,657.3328971862793,657.3259830474854,1322,1
326,quadbright,17.0,10,1,1185.7330799102783,1185.7290267944336,1350,1
327,quadbright,18.0,7,0,900.7821083068848,900.7778167724609,957,1
328,quadbright,19.0,11,1,625.2801418304443,625.2779960632324,931,1
329,quadbright,20.0,10,0,1021.6822624206543,1021.6801166534424,1260,1
330,quadbright,21.0,10,1,764.2900943756104,764.286994934082,987,1
331,quadbright,22.0,11,1,924.4091510772705,924.4070053100586,992,1
332,quadbright,23.0,14,0,826.0438442230225,826.0431289672852,1165,1
333,quadbright,24.0,13,1,1578.4080028533936,1578.4058570861816,1041,1
334,quadbright,25.0,14,0,732.9270839691162,732.9239845275879,1005,1
335,quadbright,26.0,14,1,886.2948417663574,886.2929344177246,1175,1
336,quadbright,27.0,16,0,990.3581142425537,990.3559684753418,1312,1
337,quadbright,28.0,19,1,1947.3721981048584,1947.3700523376465,993,1
338,quadbright,5.0,4,0,95.10183334350586,727.6217937469482,930,1
339,quadbright,6.0,4,1,67.00897216796875,725.0959873199463,1128,1
340,quadbright,7.0,4,1,93.64008903503418,758.673906326294,1351,1
341,quadbright,8.0,4,0,1483.9849472045898,1483.9818477630615,957,1
342,quadbright,9.0,4,1,824.3629932403564,824.3598937988281,1008,1
343,quadbright,10.0,4,1,722.7399349212646,722.7320671081543,1306,1
344,quadbright,11.0,4,1,1192.4140453338623,1192.4118995666504,1399,1
345,quadbright,12.0,4,0,1384.9279880523682,1384.9270343780518,1449,1
346,quadbright,13.0,4,1,883.4590911865234,883.4569454193115,817,1
347,quadbright,14.0,10,1,632.3177814483643,632.3146820068359,828,1
348,quadbright,15.0,10,1,527.4312496185303,527.4293422698975,1168,1
349,quadbright,16.0,11,1,724.5590686798096,724.5569229125977,1444,0
350,quadbright,16.0,11,1,764.0383243560791,764.0352249145508,1219,1
351,quadbright,17.0,10,0,829.7688961029053,829.7648429870605,1255,1
352,quadbright,18.0,10,1,661.6621017456055,661.6590023040771,1267,1
353,quadbright,19.0,11,1,727.0152568817139,727.013111114502,1192,1
354,quadbright,20.0,13,0,1184.173822402954,1184.1721534729004,1050,1
355,quadbright,21.0,10,1,827.9178142547607,827.9130458831787,1161,1
356,quadbright,22.0,11,0,924.1328239440918,924.1287708282471,872,1
357,quadbright,23.0,16,1,824.3930339813232,824.3899345397949,1325,1
358,quadbright,24.0,13,0,724.9977588653564,724.9958515167236,1142,1
359,quadbright,25.0,16,1,658.0150127410889,658.0111980438232,1234,1
360,quadbright,26.0,13,1,823.6711025238037,823.6689567565918,1168,1
361,quadbright,27.0,17,1,822.8437900543213,822.8418827056885,1014,1
362,quadbright,28.0,19,1,627.8989315032959,627.8951168060303,1086,1
