trial,condition,eccentricity,magnitude,correct,srt_ms,keyboard_rt_ms,pre_change_ms,valid
1,control,5.0,20,1,99.8530387878418,394.8071002960205,1383,1
2,control,6.0,20,1,101.70197486877441,421.6289520263672,1374,1
3,control,7.0,20,1,493.22509765625,493.2208061218262,1327,1
4,control,8.0,20,1,100.81005096435547,394.93584632873535,1219,1
5,control,9.0,20,1,393.54705810546875,393.5387134552002,1004,1
6,control,10.0,20,1,493.3338165283203,493.3319091796875,1099,1
7,control,11.0,20,1,495.5599308013916,495.55492401123047,1361,1
8,control,12.0,20,1,390.5758857727051,390.56992530822754,1221,1
9,control,13.0,20,1,487.8561496734619,487.85400390625,1460,1
10,control,14.0,20,1,394.514799118042,394.51074600219727,1351,1
11,control,15.0,20,1,496.18029594421387,496.17624282836914,1294,1
12,control,16.0,20,1,500.244140625,500.23794174194336,910,1
13,control,17.0,20,1,494.0779209136963,494.0669536590576,816,1
14,control,18.0,20,1,526.2839794158936,526.2799263000488,1392,1
15,control,19.0,20,1,493.7009811401367,493.6959743499756,908,1
16,control,20.0,20,1,692.0449733734131,692.0361518859863,1106,1
17,control,21.0,20,1,485.23402214050293,485.231876373291,1407,1
18,control,22.0,20,1,583.9719772338867,583.9710235595703,802,0
19,control,22.0,20,1,493.4401512145996,493.4370517730713,894,1
20,control,23.0,20,1,492.36321449279785,492.3529624938965,904,1
21,control,24.0,20,1,434.87095832824707,434.86785888671875,1289,1
22,control,25.0,20,1,526.519775390625,526.515007019043,896,1
23,control,26.0,20,1,528.7649631500244,528.7628173828125,1383,1
24,control,27.0,20,1,1418.2798862457275,1418.2767868041992,1044,1
25,control,28.0,20,1,592.4901962280273,592.4851894378662,1136,1
26,control,29.0,20,1,494.2147731781006,494.20905113220215,1387,0
27,control,29.0,20,1,530.1177501678467,530.1120281219482,1269,1
28,control,30.0,20,1,492.05684661865234,492.0518398284912,1247,1
29,control,5.0,20,1,98.82903099060059,492.0070171356201,1229,1
30,control,6.0,20,1,99.45011138916016,494.1251277923584,1305,1
31,control,7.0,20,1,99.07197952270508,394.44684982299805,1002,1
32,control,8.0,20,1,98.24204444885254,394.43492889404297,936,1
33,control,9.0,20,1,399.3217945098877,399.3186950683594,897,1
34,control,10.0,20,1,493.1819438934326,493.1790828704834,972,1
35,control,11.0,20,1,594.0029621124268,594.001293182373,845,1
36,control,12.0,20,1,491.09816551208496,491.09601974487305,972,1
37,control,13.0,20,1,494.60721015930176,494.60411071777344,1012,1
38,control,14.0,20,1,493.0129051208496,493.00289154052734,1035,1
39,control,15.0,20,1,592.2470092773438,592.2408103942871,800,1
40,control,16.0,20,1,529.0169715881348,529.0091037750244,1097,1
41,control,17.0,20,1,1484.0712547302246,1484.0612411499023,1332,1
42,control,18.0,20,1,593.0049419403076,593.0001735687256,858,1
43,control,19.0,20,1,489.5586967468262,489.5498752593994,1088,1
44,control,20.0,20,1,594.170093536377,594.1660404205322,1353,1
45,control,21.0,20,1,492.8441047668457,492.8410053253174,1119,1
46,control,22.0,20,1,485.3198528289795,485.31413078308105,963,1
47,control,23.0,20,1,493.6068058013916,493.60203742980957,1088,1
48,control,24.0,20,1,495.358943939209,495.3570365905762,1287,1
49,control,25.0,20,1,792.1631336212158,792.1590805053711,1045,1
50,control,26.0,20,1,691.5299892425537,691.5249824523926,1079,1
51,control,27.0,20,1,428.7290573120117,428.7269115447998,915,1
52,control,28.0,20,1,592.2412872314453,592.2350883483887,1391,1
53,control,29.0,20,1,494.59385871887207,494.59195137023926,1027,1
54,control,30.0,20,1,527.2448062896729,527.2338390350342,818,1
55,control,5.0,17,1,98.70529174804688,395.5111503601074,1370,0
56,control,5.0,17,1,99.12824630737305,493.084192276001,1159,1
57,control,6.0,17,1,98.60372543334961,690.5958652496338,1255,1
58,control,7.0,17,1,91.11809730529785,486.3700866699219,1271,1
59,control,8.0,17,1,89.30087089538574,492.39492416381836,1254,1
60,control,9.0,17,1,96.76694869995117,592.2069549560547,972,1
61,control,10.0,17,1,426.42807960510254,426.4259338378906,1278,1
62,control,11.0,17,1,597.8457927703857,597.8429317474365,1401,1
63,control,12.0,17,1,395.4918384552002,395.488977432251,1162,1
64,control,13.0,17,1,494.74477767944336,494.736909866333,807,1
65,control,14.0,17,1,494.0450191497803,494.04025077819824,1479,1
66,control,15.0,17,1,500.7481575012207,500.7443428039551,1208,1
67,control,16.0,17,1,494.3690299987793,494.36402320861816,1264,1
68,control,17.0,17,1,493.056058883667,493.0529594421387,1301,1
69,control,18.0,17,1,590.0521278381348,590.0442600250244,1211,1
70,control,19.0,17,1,493.88909339904785,493.88623237609863,972,1
71,control,20.0,17,1,487.3988628387451,487.3967170715332,1353,1
72,control,21.0,17,1,495.7599639892578,495.758056640625,882,1
73,control,22.0,17,1,394.9320316314697,394.927978515625,1050,1
74,control,23.0,17,1,493.80993843078613,493.8061237335205,1367,1
75,control,24.0,17,1,494.279146194458,494.2772388458252,833,1
76,control,25.0,17,0,989.1858100891113,989.1767501831055,907,1
77,control,26.0,17,1,591.6368961334229,591.63498878479,862,1
78,control,27.0,17,1,592.1778678894043,592.1726226806641,1348,1
79,control,28.0,17,1,493.59703063964844,493.5910701751709,1482,1
80,control,29.0,17,0,1120.069980621338,1120.0668811798096,864,1
81,control,30.0,17,1,527.4627208709717,527.4598598480225,998,1
82,control,5.0,17,1,98.72698783874512,2509.4730854034424,1051,1
83,control,6.0,17,1,100.08716583251953,493.3750629425049,1422,1
84,control,7.0,17,1,198.18997383117676,493.549108505249,1125,1
85,control,8.0,17,1,493.6189651489258,493.6108589172363,1086,1
86,control,9.0,17,1,591.7131900787354,591.710090637207,1391,1
87,control,10.0,17,1,494.25292015075684,494.2488670349121,1102,1
88,control,11.0,17,1,594.4492816925049,594.4430828094482,1254,1
89,control,12.0,17,1,392.99678802490234,392.9898738861084,1086,1
90,control,13.0,17,1,627.694845199585,627.687931060791,1445,1
91,control,14.0,17,1,490.76199531555176,490.76008796691895,1259,1
92,control,15.0,17,1,493.53599548339844,493.5340881347656,1113,1
93,control,16.0,17,1,499.5429515838623,499.5400905609131,847,1
94,control,17.0,17,1,493.40081214904785,493.3969974517822,1480,1
95,control,18.0,17,1,495.15771865844727,495.1467514038086,1427,1
96,control,19.0,17,1,397.9980945587158,397.9949951171875,1178,1
97,control,20.0,17,1,394.0770626068115,394.06800270080566,924,1
98,control,21.0,17,1,495.2661991119385,495.26023864746094,1015,1
99,control,22.0,17,1,496.7019557952881,496.69885635375977,1374,1
100,control,23.0,17,1,486.6499900817871,486.6478443145752,1246,1
101,control,24.0,17,1,593.951940536499,593.9478874206543,844,1
102,control,25.0,20,1,525.946855545044,525.9420871734619,1228,1
103,control,26.0,17,1,593.2619571685791,593.2526588439941,1153,1
104,control,27.0,17,1,1416.6159629821777,1416.6090488433838,981,1
105,control,28.0,17,1,1221.3082313537598,1221.3032245635986,867,1
106,control,29.0,20,1,494.0030574798584,494.0009117126465,1263,1
107,control,30.0,17,1,593.4560298919678,593.4529304504395,830,1
108,control,5.0,14,1,129.32920455932617,527.4102687835693,932,1
109,control,6.0,14,1,98.01101684570312,395.22504806518555,1036,1
110,control,7.0,14,1,134.45305824279785,529.3190479278564,1117,1
111,control,8.0,14,1,594.1159725189209,594.1128730773926,1173,1
112,control,9.0,14,1,491.1990165710449,491.19114875793457,1233,1
113,control,10.0,14,1,395.29991149902344,395.2977657318115,1394,1
114,control,11.0,14,1,493.6518669128418,493.6399459838867,1440,1
115,control,12.0,14,1,493.9720630645752,493.9689636230469,1453,1
116,control,13.0,14,1,493.4730529785156,493.4651851654053,1202,1
117,control,14.0,14,1,494.92502212524414,494.9209690093994,1173,1
118,control,15.0,14,1,494.2457675933838,494.24099922180176,1086,1
119,control,16.0,14,1,494.2777156829834,494.2739009857178,1062,1
120,control,17.0,14,0,387.13598251342773,387.1340751647949,1396,1
121,control,18.0,14,1,489.29309844970703,489.2890453338623,889,1
122,control,19.0,14,1,493.7629699707031,493.7610626220703,1298,1
123,control,20.0,14,1,493.488073348999,493.4811592102051,810,1
124,control,21.0,14,1,487.0789051055908,487.0779514312744,1335,1
125,control,22.0,14,1,492.75898933410645,492.7518367767334,1023,1
126,control,23.0,14,1,592.9670333862305,592.9551124572754,1226,1
127,control,24.0,14,1,891.9250965118408,891.9219970703125,1160,1
128,control,25.0,20,1,700.5360126495361,700.5319595336914,1438,1
129,control,26.0,14,1,491.9149875640869,491.912841796875,1053,1
130,control,27.0,14,1,493.0238723754883,493.01981925964355,1413,1
131,control,28.0,14,1,529.796838760376,529.7908782958984,1326,1
132,control,29.0,20,1,593.2247638702393,593.2216644287109,1265,1
133,control,30.0,14,1,593.1079387664795,593.1050777435303,1169,1
134,control,5.0,14,1,99.66516494750977,458.1789970397949,1338,1
135,control,6.0,14,1,91.87507629394531,394.9282169342041,870,1
136,control,7.0,14,1,97.8541374206543,487.030029296875,1117,1
137,control,8.0,14,1,526.4871120452881,526.4849662780762,1400,1
138,control,9.0,14,1,429.9149513244629,429.90899085998535,1055,1
139,control,10.0,14,1,493.96300315856934,493.9601421356201,991,1
140,control,11.0,14,1,496.3209629058838,496.31810188293457,1042,1
141,control,12.0,14,1,490.6597137451172,490.65184593200684,1259,1
142,control,13.0,14,1,592.2451019287109,592.2369956970215,1217,1
143,control,14.0,14,1,494.89402770996094,494.8892593383789,1302,1
144,control,15.0,14,1,989.210844039917,989.2089366912842,1369,1
145,control,16.0,14,1,533.9598655700684,533.9577198028564,1303,1
146,control,17.0,17,1,525.4120826721191,525.4080295562744,999,1
147,control,18.0,14,1,1483.6740493774414,1483.673095703125,907,1
148,control,19.0,14,1,526.3030529022217,526.299238204956,1357,1
149,control,20.0,14,1,493.81399154663086,493.81089210510254,1293,1
150,control,21.0,14,1,493.2103157043457,493.20411682128906,1055,1
151,control,22.0,14,1,393.36609840393066,393.36299896240234,1130,1
152,control,23.0,14,1,493.14308166503906,493.1378364562988,857,1
153,control,24.0,14,1,491.98293685913086,491.97983741760254,1498,1
154,control,25.0,18,1,495.2731132507324,495.2669143676758,1179,1
155,control,26.0,14,1,494.86613273620605,494.8599338531494,1165,1
156,control,27.0,14,1,591.4380550384521,591.4349555969238,1058,1
157,control,28.0,14,1,592.5450325012207,592.5400257110596,890,1
158,control,29.0,18,1,492.919921875,492.91515350341797,1433,1
159,control,30.0,14,1,625.8471012115479,625.8399486541748,1220,1
160,control,5.0,11,1,98.81305694580078,395.4119682312012,1196,1
161,control,6.0,11,1,99.66802597045898,395.97606658935547,1449,1
162,control,7.0,11,1,97.93424606323242,395.37525177001953,1204,1
163,control,8.0,11,1,100.18372535705566,493.78204345703125,1466,1
164,control,9.0,11,1,494.3280220031738,494.3258762359619,933,1
165,control,10.0,11,1,493.1600093841553,493.15500259399414,1281,1
166,control,11.0,11,1,392.64893531799316,392.64392852783203,1348,1
167,control,12.0,11,1,494.4608211517334,494.45390701293945,1009,1
168,control,13.0,11,1,720.1042175292969,720.1030254364014,1216,1
169,control,14.0,11,1,524.9102115631104,524.9042510986328,1098,1
170,control,15.0,11,1,494.52805519104004,494.51708793640137,1135,1
171,control,16.0,11,1,494.9760437011719,494.97509002685547,1440,1
172,control,17.0,17,1,593.7380790710449,593.731164932251,1040,1
173,control,18.0,11,1,492.5057888031006,492.50197410583496,1232,1
174,control,19.0,11,1,494.11511421203613,494.1129684448242,1247,1
175,control,20.0,11,1,493.1910037994385,493.18623542785645,1320,1
176,control,21.0,11,0,1219.5079326629639,1219.4969654083252,826,0
177,control,21.0,11,1,493.7441349029541,493.7398433685303,1157,1
178,control,22.0,11,1,493.8809871673584,493.87598037719727,1105,1
179,control,23.0,11,1,526.2470245361328,526.2429714202881,1362,1
180,control,24.0,11,1,528.2371044158936,528.2349586486816,909,1
181,control,25.0,18,1,592.6220417022705,592.6167964935303,974,1
182,control,26.0,11,1,490.4787540435791,490.4770851135254,1164,1
183,control,27.0,11,1,591.8469429016113,591.843843460083,992,1
184,control,28.0,11,1,791.7881011962891,791.7850017547607,1475,1
185,control,29.0,18,1,691.0421848297119,691.0369396209717,1034,1
186,control,30.0,11,1,1413.851261138916,1413.849115371704,1080,1
187,control,5.0,11,1,98.8318920135498,493.2899475097656,1236,1
188,control,6.0,11,1,428.3568859100342,428.35497856140137,1284,1
189,control,7.0,11,1,99.1668701171875,493.513822555542,1083,1
190,control,8.0,11,1,200.19793510437012,495.1939582824707,1127,1
191,control,9.0,11,1,496.68192863464355,496.6719150543213,849,1
192,control,10.0,11,1,391.77823066711426,391.7710781097412,1199,1
193,control,11.0,11,1,395.83516120910645,395.83325386047363,1179,1
194,control,12.0,11,1,395.3588008880615,395.3518867492676,1372,1
195,control,13.0,11,1,595.3710079193115,595.3679084777832,1207,1
196,control,14.0,11,1,691.493034362793,691.490888595581,834,1
197,control,15.0,11,0,1184.7259998321533,1184.7200393676758,1053,1
198,control,16.0,11,1,1515.9077644348145,1515.9008502960205,1208,1
199,control,17.0,15,1,2175.62198638916,2175.616979598999,1084,1
200,control,18.0,11,1,494.5700168609619,494.5638179779053,1407,1
201,control,19.0,11,1,494.4179058074951,494.4119453430176,1106,1
202,control,20.0,11,1,494.9910640716553,494.98581886291504,987,1
203,control,21.0,11,1,496.2480068206787,496.2449073791504,1296,1
204,control,22.0,11,1,494.94075775146484,494.9350357055664,846,1
205,control,23.0,11,1,427.09803581237793,427.0961284637451,1325,1
206,control,24.0,11,1,525.5451202392578,525.5341529846191,1452,1
207,control,25.0,17,1,493.1509494781494,493.1468963623047,1453,1
208,control,26.0,11,1,691.1118030548096,691.1039352416992,972,1
209,control,27.0,11,1,593.012809753418,593.0070877075195,1359,1
210,control,28.0,11,1,493.5309886932373,493.5269355773926,1206,1
211,control,29.0,17,1,594.433069229126,594.4278240203857,1156,1
212,control,30.0,11,0,793.5960292816162,793.5879230499268,815,1
213,control,5.0,8,1,98.26922416687012,394.3212032318115,1498,1
214,control,6.0,8,1,101.25494003295898,495.3269958496094,1127,1
215,control,7.0,8,1,489.54272270202637,489.54176902770996,1192,1
216,control,8.0,8,1,494.0650463104248,494.05384063720703,1431,1
217,control,9.0,8,1,103.7743091583252,501.48916244506836,823,1
218,control,10.0,8,1,502.2871494293213,502.2852420806885,1303,1
219,control,11.0,8,1,789.9570465087891,789.9520397186279,1500,1
220,control,12.0,8,1,496.29998207092285,496.2930679321289,1069,1
221,control,13.0,8,1,431.3070774078369,431.29801750183105,1136,1
222,control,14.0,8,1,493.5576915740967,493.55387687683105,863,1
223,control,15.0,14,1,426.11098289489746,426.10716819763184,1403,1
224,control,16.0,8,1,1214.8380279541016,1214.8358821868896,1009,1
225,control,17.0,15,1,493.1659698486328,493.1631088256836,1163,1
226,control,18.0,8,1,592.5490856170654,592.5390720367432,920,1
227,control,19.0,8,1,492.8441047668457,492.83885955810547,849,1
228,control,20.0,8,1,493.1352138519287,493.12806129455566,1371,1
229,control,21.0,8,1,493.8371181488037,493.8349723815918,906,1
230,control,22.0,8,0,693.4499740600586,693.4421062469482,953,1
231,control,23.0,8,1,694.0689086914062,694.0639019012451,1320,1
232,control,24.0,8,1,889.1258239746094,889.1189098358154,844,1
233,control,25.0,17,1,591.9220447540283,591.9191837310791,1474,1
234,control,26.0,8,1,594.0217971801758,594.0148830413818,1042,1
235,control,27.0,8,0,791.1629676818848,791.1579608917236,1142,1
236,control,28.0,8,1,692.0862197875977,692.0788288116455,1390,1
237,control,29.0,17,1,492.20800399780273,492.203950881958,1116,1
238,control,30.0,14,1,493.9849376678467,493.9730167388916,1213,1
239,control,5.0,8,1,98.07014465332031,491.2559986114502,807,1
240,control,6.0,8,1,104.80618476867676,599.0810394287109,1338,1
241,control,7.0,8,1,99.05409812927246,493.48926544189453,1169,1
242,control,8.0,8,1,394.8361873626709,394.83118057250977,991,1
243,control,9.0,8,1,394.09494400024414,394.0908908843994,1225,1
244,control,10.0,8,1,493.65901947021484,493.6561584472656,980,1
245,control,11.0,8,1,493.1490421295166,493.1471347808838,1002,1
246,control,12.0,8,1,493.9589500427246,493.95084381103516,1154,1
247,control,13.0,8,1,393.9018249511719,393.89991760253906,1146,1
248,control,14.0,8,1,493.90316009521484,493.8952922821045,1035,1
249,control,15.0,14,1,491.9307231903076,491.9247627258301,847,1
250,control,16.0,8,1,492.8550720214844,492.84887313842773,854,1
251,control,17.0,14,1,500.19097328186035,500.18906593322754,849,1
252,control,18.0,8,1,690.6490325927734,690.6471252441406,976,1
253,control,19.0,8,1,495.20111083984375,495.1958656311035,1017,1
254,control,20.0,8,1,492.69890785217285,492.6948547363281,1363,1
255,control,21.0,8,1,592.9019451141357,592.8990840911865,1156,1
256,control,22.0,11,1,493.1318759918213,493.12591552734375,979,1
257,control,23.0,8,0,1406.7697525024414,1406.768798828125,872,1
258,control,24.0,8,1,494.05384063720703,494.0521717071533,1096,1
259,control,25.0,15,1,501.07407569885254,501.07312202453613,1281,1
260,control,26.0,8,1,495.2199459075928,495.21684646606445,1279,1
261,control,27.0,11,1,493.4577941894531,493.4508800506592,1211,1
262,control,28.0,8,1,1418.8249111175537,1418.8218116760254,1018,1
263,control,29.0,15,1,526.9210338592529,526.918888092041,930,1
264,control,30.0,14,0,1419.3940162658691,1419.3880558013916,919,1
265,control,5.0,5,1,99.39408302307129,494.3208694458008,1480,1
266,control,6.0,5,1,100.58116912841797,790.0960445404053,1357,1
267,control,7.0,5,1,99.29132461547852,589.1971588134766,866,1
268,control,8.0,5,1,495.1801300048828,495.1779842376709,898,1
269,control,9.0,5,1,393.64027976989746,393.6331272125244,1124,1
270,control,10.0,5,1,494.25315856933594,494.24099922180176,1328,1
271,control,11.0,5,1,2707.667827606201,2707.660675048828,1377,1
272,control,12.0,5,1,1285.2680683135986,1285.262107849121,1153,1
273,control,13.0,5,1,594.7582721710205,594.7561264038086,1155,0
274,control,13.0,5,1,789.5190715789795,789.5150184631348,1235,1
275,control,14.0,5,1,493.9441680908203,493.9379692077637,918,1
276,control,15.0,12,1,534.0940952301025,534.0890884399414,1008,1
277,control,16.0,5,0,1615.25297164917,1615.2498722076416,892,1
278,control,17.0,14,1,598.991870880127,598.9868640899658,1443,1
279,control,18.0,5,1,790.2429103851318,790.2390956878662,1173,1
280,control,19.0,5,0,890.4139995574951,890.4078006744385,911,1
281,control,20.0,5,1,491.89186096191406,491.88709259033203,1394,1
282,control,21.0,5,1,693.2928562164307,693.281888961792,1222,1
283,control,22.0,11,1,493.99614334106445,493.9889907836914,1415,1
284,control,23.0,11,0,1129.683017730713,1129.6780109405518,1175,1
285,control,24.0,5,0,822.8700160980225,822.8611946105957,1225,1
286,control,25.0,15,1,594.1581726074219,594.1522121429443,1053,1
287,control,26.0,5,1,1781.0940742492676,1781.0869216918945,1072,1
288,control,27.0,11,1,597.0499515533447,597.0399379730225,1391,1
289,control,28.0,5,1,790.7860279083252,790.7781600952148,1168,1
290,control,29.0,15,1,496.8550205230713,496.85120582580566,1084,1
291,control,30.0,15,1,693.878173828125,693.8722133636475,822,1
292,control,5.0,5,1,100.65817832946777,494.89903450012207,1277,1
293,control,6.0,5,1,100.31580924987793,528.0399322509766,1436,1
294,control,7.0,5,1,100.22401809692383,585.5379104614258,1443,1
295,control,8.0,5,1,493.8631057739258,493.85905265808105,1120,1
296,control,9.0,5,1,499.23110008239746,499.22823905944824,1067,1
297,control,10.0,5,1,492.34509468078613,492.3388957977295,1351,1
298,control,11.0,5,1,492.08807945251465,492.0809268951416,1079,1
299,control,12.0,5,1,394.5951461791992,394.5920467376709,1167,1
300,control,13.0,5,1,724.9031066894531,724.8959541320801,955,1
301,control,14.0,5,1,824.0928649902344,824.0869045257568,819,1
302,control,15.0,12,1,501.6782283782959,501.67012214660645,1464,1
303,control,16.0,8,1,532.562255859375,532.5591564178467,1480,1
304,control,17.0,12,1,395.2980041503906,395.2820301055908,1436,1
305,control,18.0,5,0,988.3410930633545,988.3358478546143,1463,1
306,control,19.0,8,1,493.9877986907959,493.9851760864258,1184,1
307,control,20.0,5,1,896.1760997772217,896.1708545684814,1318,1
308,control,21.0,5,0,786.5452766418457,786.5431308746338,1290,1
309,control,22.0,9,0,893.4988975524902,893.4950828552246,864,1
310,control,23.0,14,1,495.20301818847656,495.19896507263184,1488,1
311,control,24.0,8,1,492.9389953613281,492.933988571167,1170,1
312,control,25.0,14,1,496.1891174316406,496.18005752563477,1246,1
313,control,26.0,5,1,789.6199226379395,789.6182537078857,1027,1
314,control,27.0,9,1,724.8468399047852,724.8420715332031,980,1
315,control,28.0,5,1,784.5938205718994,784.5921516418457,1203,1
316,control,29.0,14,1,493.1199550628662,493.1149482727051,1174,1
317,control,30.0,15,1,494.34804916381836,494.3432807922363,1215,1
318,control,5.0,2,1,1584.1870307922363,1584.1789245605469,814,1
319,control,6.0,2,1,132.91501998901367,1813.9011859893799,1127,1
320,control,7.0,2,1,99.94077682495117,988.9037609100342,1470,1
321,control,8.0,2,0,1120.689868927002,1120.6858158111572,1305,1
322,control,9.0,2,1,230.61203956604004,922.3129749298096,1118,1
323,control,10.0,2,0,1484.6408367156982,1484.631061553955,933,1
324,control,11.0,2,0,1483.6227893829346,1483.6127758026123,828,1
325,control,12.0,2,0,791.6469573974609,791.6417121887207,1230,1
326,control,13.0,2,1,894.5891857147217,894.5808410644531,1114,1
327,control,14.0,2,0,824.7239589691162,824.7201442718506,876,1
328,control,15.0,11,1,494.4911003112793,494.48704719543457,1124,1
329,control,16.0,8,1,494.83489990234375,494.83203887939453,1462,1
330,control,17.0,12,1,491.43075942993164,491.42909049987793,894,1
331,control,18.0,8,1,592.2470092773438,592.2398567199707,883,1
332,control,19.0,8,1,592.7009582519531,592.695951461792,1053,1
333,control,20.0,2,0,1190.209150314331,1190.201997756958,1278,1
334,control,21.0,8,1,625.9527206420898,625.9489059448242,895,1
335,control,22.0,11,1,594.2349433898926,594.2280292510986,1161,1
336,control,23.0,14,1,528.444766998291,528.4337997436523,1281,1
337,control,24.0,8,0,890.1441097259521,890.1388645172119,1146,1
338,control,25.0,14,1,593.4982299804688,593.4860706329346,824,1
339,control,26.0,2,0,791.1369800567627,791.1331653594971,966,1
340,control,27.0,9,1,485.7468605041504,485.7447147369385,872,1
341,control,28.0,2,0,691.8179988861084,691.8067932128906,1065,1
342,control,29.0,14,1,520.3049182891846,520.3032493591309,970,1
343,control,30.0,14,1,426.6819953918457,426.677942276001,1046,1
344,control,5.0,2,0,98.66905212402344,823.1031894683838,956,1
345,control,6.0,2,0,97.21708297729492,1913.0029678344727,832,1
346,control,7.0,2,0,98.98805618286133,691.7240619659424,1409,1
347,control,8.0,5,1,262.9570960998535,494.19498443603516,1011,1
348,control,9.0,2,1,289.2439365386963,791.0783290863037,1317,1
349,control,10.0,5,1,1187.4730587005615,1187.4699592590332,1058,1
350,control,11.0,5,1,592.736005783081,592.7281379699707,876,1
351,control,12.0,5,1,526.4277458190918,526.418924331665,817,1
352,control,13.0,2,1,988.6548519134521,988.6500835418701,1216,1
353,control,14.0,5,1,588.1137847900391,588.1121158599854,1193,1
354,control,15.0,11,1,492.1071529388428,492.10309982299805,1262,1
355,control,16.0,6,1,824.3088722229004,824.3067264556885,865,1
356,control,17.0,11,1,494.22192573547363,494.215726852417,1437,1
357,control,18.0,8,1,502.5341510772705,502.5310516357422,1043,1
358,control,19.0,6,1,591.5231704711914,591.5200710296631,1320,1
359,control,20.0,5,0,791.1601066589355,791.1560535430908,842,1
360,control,21.0,8,1,790.4841899871826,790.4820442199707,1351,1
361,control,22.0,11,1,426.6932010650635,426.685094833374,900,1
362,control,23.0,12,1,493.34001541137695,493.3350086212158,1035,1
363,control,24.0,9,1,691.8179988861084,691.8089389801025,1397,1
364,control,25.0,12,1,395.1301574707031,395.122766494751,1384,1
365,control,26.0,5,0,790.7037734985352,790.6999588012695,1398,1
366,control,27.0,8,1,725.4471778869629,725.4421710968018,828,1
367,control,28.0,5,0,989.6700382232666,989.6671772003174,1242,1
368,control,29.0,12,1,729.4101715087891,729.4061183929443,1067,1
369,control,30.0,14,1,493.67618560791016,493.67403984069824,1142,1
370,control,5.0,5,1,98.63424301147461,491.9111728668213,1326,1
371,control,6.0,5,1,98.87385368347168,493.8638210296631,1322,1
372,control,7.0,5,1,198.34089279174805,494.34900283813477,1236,1
373,control,8.0,5,1,95.80802917480469,824.4218826293945,918,1
374,control,9.0,1,1,892.4732208251953,892.4682140350342,1271,1
375,control,10.0,5,1,1581.0837745666504,1581.0818672180176,1101,1
376,control,11.0,5,1,724.1361141204834,724.1332530975342,1345,1
377,control,12.0,5,1,593.425989151001,593.4207439422607,1316,1
378,control,13.0,1,0,790.0640964508057,790.0590896606445,1358,1
379,control,14.0,5,1,782.4389934539795,782.4380397796631,1284,1
380,control,15.0,9,1,491.63317680358887,491.63007736206055,1166,1
381,control,16.0,6,0,1019.489049911499,1019.484281539917,1016,1
382,control,17.0,11,1,490.88382720947266,490.88120460510254,1330,1
383,control,18.0,6,1,789.2861366271973,789.283037185669,1431,1
384,control,19.0,6,1,1088.3750915527344,1088.3731842041016,1006,1
385,control,20.0,8,0,789.8609638214111,789.85595703125,1434,1
386,control,21.0,6,1,724.0502834320068,724.0481376647949,1261,1
387,control,22.0,10,1,525.9389877319336,525.930643081665,1070,1
388,control,23.0,12,1,525.9039402008057,525.9020328521729,1215,1
389,control,24.0,9,1,592.2439098358154,592.2391414642334,1278,1
390,control,25.0,12,1,487.74123191833496,487.74027824401855,1369,1
391,control,26.0,8,1,592.5638675689697,592.5545692443848,1110,1
392,control,27.0,8,1,791.0609245300293,791.053056716919,1385,1
393,control,28.0,8,1,694.0112113952637,694.0059661865234,1130,1
394,control,29.0,12,1,692.3980712890625,692.3928260803223,1394,1
395,control,30.0,13,1,593.2021141052246,593.1921005249023,1239,1
1,quadbright,5.0,20,1,100.17585754394531,693.1190490722656,1470,1
2,quadbright,6.0,20,1,105.12399673461914,499.6778964996338,1186,1
3,quadbright,7.0,20,1,298.5260486602783,496.04201316833496,1127,1
4,quadbright,8.0,20,1,106.19187355041504,501.74689292907715,1325,1
5,quadbright,9.0,20,1,98.0370044708252,689.8701190948486,822,1
6,quadbright,10.0,20,1,97.94831275939941,492.7511215209961,1068,1
7,quadbright,11.0,20,1,493.41487884521484,493.4070110321045,1174,1
8,quadbright,12.0,20,1,528.2301902770996,528.2232761383057,1214,1
9,quadbright,13.0,20,1,106.06813430786133,503.2961368560791,1110,0
10,quadbright,13.0,20,1,498.14510345458984,498.140811920166,1245,1
11,quadbright,14.0,20,1,494.1368103027344,494.13490295410156,1273,1
12,quadbright,15.0,20,1,494.2500591278076,494.24099922180176,926,1
13,quadbright,16.0,20,1,691.5268898010254,691.521167755127,1209,1
14,quadbright,17.0,20,1,494.68183517456055,494.6770668029785,800,1
15,quadbright,18.0,20,1,494.5940971374512,494.58932876586914,1335,1
16,quadbright,19.0,20,1,394.9289321899414,394.9160575866699,1408,1
17,quadbright,20.0,20,1,491.4541244506836,491.45007133483887,1280,1
18,quadbright,21.0,20,1,526.3171195983887,526.3118743896484,1458,1
19,quadbright,22.0,20,1,393.848180770874,393.8450813293457,938,1
20,quadbright,23.0,20,1,493.5879707336426,493.58201026916504,1178,1
21,quadbright,24.0,20,1,493.62707138061523,493.6220645904541,1431,1
22,quadbright,25.0,20,0,1679.7358989715576,1679.7270774841309,1225,1
23,quadbright,26.0,20,1,593.0948257446289,593.0910110473633,1175,1
24,quadbright,27.0,20,1,592.6909446716309,592.6861763000488,1104,1
25,quadbright,28.0,20,1,593.9903259277344,593.9860343933105,1032,0
26,quadbright,28.0,20,1,534.2710018157959,534.264087677002,983,1
27,quadbright,29.0,20,1,518.7361240386963,518.7339782714844,994,1
28,quadbright,30.0,20,1,592.0920372009277,592.0839309692383,866,1
29,quadbright,5.0,20,1,102.00190544128418,429.7049045562744,1167,1
30,quadbright,6.0,20,1,99.76887702941895,692.206859588623,914,1
31,quadbright,7.0,20,1,99.59602355957031,592.2138690948486,1450,1
32,quadbright,8.0,20,1,92.06604957580566,395.74289321899414,1122,1
33,quadbright,9.0,20,1,99.8690128326416,492.4290180206299,1253,1
34,quadbright,10.0,20,1,493.84093284606934,493.8361644744873,1078,1
35,quadbright,11.0,20,1,493.0429458618164,493.03698539733887,1409,1
36,quadbright,12.0,20,1,492.8109645843506,492.8090572357178,1419,1
37,quadbright,13.0,20,1,392.29798316955566,392.29607582092285,1103,1
38,quadbright,14.0,20,1,394.34123039245605,394.33813095092773,1422,1
39,quadbright,15.0,20,1,493.5588836669922,493.55387687683105,969,1
40,quadbright,16.0,20,1,492.9490089416504,492.9468631744385,828,1
41,quadbright,17.0,20,1,492.87891387939453,492.8741455078125,978,1
42,quadbright,18.0,20,1,494.25601959228516,494.2491054534912,1278,1
43,quadbright,19.0,20,1,517.1859264373779,517.1849727630615,1261,1
44,quadbright,20.0,20,1,525.5489349365234,525.543212890625,1081,1
45,quadbright,21.0,20,1,601.0410785675049,601.0401248931885,1027,1
46,quadbright,22.0,20,1,592.9341316223145,592.9322242736816,901,1
47,quadbright,23.0,20,1,491.71996116638184,491.7182922363281,1284,1
48,quadbright,24.0,20,1,625.3938674926758,625.3888607025146,1113,1
49,quadbright,25.0,23,1,525.2339839935303,525.2296924591064,1088,1
50,quadbright,26.0,20,1,1219.2440032958984,1219.2409038543701,938,1
51,quadbright,27.0,20,1,492.8150177001953,492.8109645843506,1191,1
52,quadbright,28.0,20,1,502.7751922607422,502.76994705200195,1422,1
53,quadbright,29.0,20,1,490.7488822937012,490.7388687133789,1082,1
54,quadbright,30.0,20,0,1385.9901428222656,1385.9851360321045,1045,1
55,quadbright,5.0,17,1,95.52407264709473,394.35315132141113,829,1
56,quadbright,6.0,17,1,98.48618507385254,1087.1751308441162,1360,1
57,quadbright,7.0,17,1,98.20413589477539,691.6909217834473,1385,1
58,quadbright,8.0,17,1,100.32200813293457,720.5939292907715,894,1
59,quadbright,9.0,17,1,499.8431205749512,499.84002113342285,810,1
60,quadbright,10.0,17,1,492.9461479187012,492.94304847717285,828,1
61,quadbright,11.0,17,1,500.47993659973145,500.4737377166748,1388,1
62,quadbright,12.0,17,1,393.07618141174316,393.0649757385254,851,0
63,quadbright,12.0,17,1,495.75090408325195,495.743989944458,1121,1
64,quadbright,13.0,17,1,635.4458332061768,635.4429721832275,820,1
65,quadbright,14.0,17,1,493.8991069793701,493.89100074768066,803,1
66,quadbright,15.0,17,1,392.90809631347656,392.8990364074707,903,1
67,quadbright,16.0,17,1,1018.8639163970947,1018.8589096069336,941,1
68,quadbright,17.0,17,1,526.04079246521,526.0350704193115,1003,1
69,quadbright,18.0,17,1,592.400312423706,592.3960208892822,1170,1
70,quadbright,19.0,17,1,395.8728313446045,395.8630561828613,1361,1
71,quadbright,20.0,17,1,522.691011428833,522.6879119873047,1328,1
72,quadbright,21.0,17,1,692.2721862792969,692.2681331634521,1161,1
73,quadbright,22.0,17,1,493.83997917175293,493.8321113586426,1354,1
74,quadbright,23.0,17,1,404.3099880218506,404.30521965026855,1067,1
75,quadbright,24.0,17,1,593.5266017913818,593.5227870941162,1284,1
76,quadbright,25.0,23,0,497.2550868988037,497.2519874572754,1250,1
77,quadbright,26.0,17,1,525.6030559539795,525.5999565124512,1068,1
78,quadbright,27.0,17,0,1218.4100151062012,1218.4028625488281,958,1
79,quadbright,28.0,17,1,595.6342220306396,595.6311225891113,1284,1
80,quadbright,29.0,17,1,594.5801734924316,594.573974609375,1222,1
81,quadbright,30.0,23,1,592.094898223877,592.0898914337158,823,1
82,quadbright,5.0,17,1,99.68876838684082,690.3316974639893,1322,1
83,quadbright,6.0,17,1,99.95388984680176,395.01285552978516,1004,1
84,quadbright,7.0,17,1,99.55883026123047,491.6098117828369,1030,1
85,quadbright,8.0,17,1,98.02007675170898,593.4772491455078,1108,1
86,quadbright,9.0,17,1,495.7759380340576,495.7706928253174,1316,1
87,quadbright,10.0,17,1,397.29809761047363,397.2899913787842,1302,1
88,quadbright,11.0,17,1,494.7230815887451,494.71569061279297,1137,1
89,quadbright,12.0,17,1,716.1247730255127,716.1228656768799,942,1
90,quadbright,13.0,17,1,487.2300624847412,487.2291088104248,1360,1
91,quadbright,14.0,17,1,1617.5720691680908,1617.563009262085,924,1
92,quadbright,15.0,17,1,395.4622745513916,395.4591751098633,1400,1
93,quadbright,16.0,17,1,524.7533321380615,524.7480869293213,1327,1
94,quadbright,17.0,17,1,494.07291412353516,494.07005310058594,851,1
95,quadbright,18.0,17,1,593.0008888244629,592.9949283599854,1279,1
96,quadbright,19.0,17,1,593.7302112579346,593.7271118164062,834,1
97,quadbright,20.0,17,1,429.0611743927002,429.05521392822266,1264,1
98,quadbright,21.0,17,1,525.5217552185059,525.5188941955566,1352,1
99,quadbright,22.0,17,1,494.45509910583496,494.4441318511963,1153,1
100,quadbright,23.0,17,1,484.68613624572754,484.68494415283203,1228,1
101,quadbright,24.0,17,1,494.5809841156006,494.57788467407227,1188,1
102,quadbright,25.0,26,0,1284.7349643707275,1284.728765487671,867,1
103,quadbright,26.0,17,1,1180.567741394043,1180.5660724639893,1287,1
104,quadbright,27.0,20,1,593.6357975006104,593.6307907104492,900,1
105,quadbright,28.0,17,1,493.26300621032715,493.26086044311523,1171,1
106,quadbright,29.0,17,1,690.4959678649902,690.4919147491455,926,1
107,quadbright,30.0,23,1,493.86072158813477,493.8538074493408,920,1
108,quadbright,5.0,14,1,98.71888160705566,493.70765686035156,1276,1
109,quadbright,6.0,14,1,98.5560417175293,492.2809600830078,1166,1
110,quadbright,7.0,14,1,98.9081859588623,492.7361011505127,1163,1
111,quadbright,8.0,14,1,195.3120231628418,494.077205657959,1055,1
112,quadbright,9.0,14,1,500.3089904785156,500.3042221069336,1001,1
113,quadbright,10.0,14,1,489.60280418395996,489.5937442779541,1349,1
114,quadbright,11.0,14,1,491.84107780456543,491.8360710144043,1462,1
115,quadbright,12.0,14,1,495.10717391967773,495.0981140136719,905,1
116,quadbright,13.0,14,1,492.95687675476074,492.9490089416504,1406,1
117,quadbright,14.0,14,1,593.7819480895996,593.7778949737549,1217,1
118,quadbright,15.0,14,1,490.42391777038574,490.42201042175293,1182,1
119,quadbright,16.0,14,1,526.6880989074707,526.6859531402588,1112,1
120,quadbright,17.0,14,1,592.6220417022705,592.6191806793213,836,1
121,quadbright,18.0,14,1,493.0241107940674,493.02029609680176,1084,1
122,quadbright,19.0,14,1,589.0202522277832,589.0152454376221,1477,1
123,quadbright,20.0,14,1,595.689058303833,595.6850051879883,1401,1
124,quadbright,21.0,14,1,497.0519542694092,497.04909324645996,1331,1
125,quadbright,22.0,14,1,393.1138515472412,393.1107521057129,1111,1
126,quadbright,23.0,14,1,626.7621517181396,626.758337020874,1282,1
127,quadbright,24.0,14,1,593.0259227752686,593.0221080780029,1418,1
128,quadbright,25.0,27,1,493.8631057739258,493.85809898376465,1052,1
129,quadbright,26.0,14,1,590.4829502105713,590.479850769043,905,1
130,quadbright,27.0,20,1,520.2698707580566,520.2689170837402,1429,1
131,quadbright,28.0,14,1,888.5171413421631,888.512134552002,1357,1
132,quadbright,29.0,14,1,1613.6491298675537,1613.6438846588135,803,1
133,quadbright,30.0,21,1,591.6931629180908,591.684103012085,1485,1
134,quadbright,5.0,14,1,93.07718276977539,494.7800636291504,1463,1
135,quadbright,6.0,14,1,386.4288330078125,386.4269256591797,1309,1
136,quadbright,7.0,14,1,100.25310516357422,393.765926361084,1177,1
137,quadbright,8.0,14,1,131.97779655456543,526.4739990234375,1413,1
138,quadbright,9.0,14,1,494.0810203552246,494.0769672393799,1069,1
139,quadbright,10.0,14,1,518.3477401733398,518.3467864990234,866,1
140,quadbright,11.0,14,1,487.2579574584961,487.2567653656006,1495,1
141,quadbright,12.0,14,1,625.0,624.9971389770508,849,1
142,quadbright,13.0,14,1,493.6048984527588,493.59893798828125,1268,1
143,quadbright,14.0,14,1,502.5639533996582,502.5599002838135,1153,1
144,quadbright,15.0,14,1,426.8028736114502,426.7997741699219,1234,1
145,quadbright,16.0,14,1,525.4058837890625,525.4011154174805,1347,1
146,quadbright,17.0,14,1,533.843994140625,533.837080001831,1053,1
147,quadbright,18.0,14,1,527.0659923553467,527.0578861236572,925,1
148,quadbright,19.0,14,1,427.57606506347656,427.57296562194824,1019,1
149,quadbright,20.0,14,1,529.3271541595459,529.325008392334,1214,1
150,quadbright,21.0,14,1,395.81990242004395,395.81799507141113,1282,1
151,quadbright,22.0,14,1,496.66500091552734,496.6588020324707,1308,1
152,quadbright,23.0,14,1,515.1581764221191,515.1569843292236,1320,1
153,quadbright,24.0,14,1,1987.7409934997559,1987.7300262451172,1149,1
154,quadbright,25.0,27,1,490.71502685546875,490.7090663909912,1338,1
155,quadbright,26.0,14,1,490.5209541320801,490.5202388763428,849,1
156,quadbright,27.0,18,1,1185.878038406372,1185.8761310577393,1367,1
157,quadbright,28.0,14,1,1284.6319675445557,1284.6291065216064,819,1
158,quadbright,29.0,14,1,890.7020092010498,890.6979560852051,1358,1
159,quadbright,30.0,21,1,491.8372631072998,491.8322563171387,1411,1
160,quadbright,5.0,11,1,98.71792793273926,492.7380084991455,1118,1
161,quadbright,6.0,11,1,98.85120391845703,486.47403717041016,1259,1
162,quadbright,7.0,11,1,99.16996955871582,493.88623237609863,1342,1
163,quadbright,8.0,11,1,493.70288848876953,493.6959743499756,1203,1
164,quadbright,9.0,11,1,394.636869430542,394.63186264038086,1044,1
165,quadbright,10.0,11,1,504.02188301086426,504.0087699890137,1108,1
166,quadbright,11.0,11,1,494.01402473449707,494.006872177124,1281,1
167,quadbright,12.0,11,1,493.62778663635254,493.6256408691406,1335,1
168,quadbright,13.0,11,1,91.18413925170898,486.00292205810547,1007,1
169,quadbright,14.0,11,1,627.4862289428711,627.4809837341309,1058,1
170,quadbright,15.0,11,1,685.3489875793457,685.3470802307129,1072,1
171,quadbright,16.0,11,1,491.82915687561035,491.8191432952881,1022,1
172,quadbright,17.0,11,1,735.8019351959229,735.8009815216064,1276,1
173,quadbright,18.0,11,1,492.83504486083984,492.8319454193115,1352,1
174,quadbright,19.0,11,0,988.8560771942139,988.85178565979,1224,1
175,quadbright,20.0,11,1,492.6800727844238,492.6750659942627,1035,1
176,quadbright,21.0,11,1,493.84284019470215,493.82901191711426,933,1
177,quadbright,22.0,11,1,625.8840560913086,625.8730888366699,1476,1
178,quadbright,23.0,11,1,885.9319686889648,885.9257698059082,1201,1
179,quadbright,24.0,11,1,590.6209945678711,590.6147956848145,1123,1
180,quadbright,25.0,26,1,395.2808380126953,395.27082443237305,1034,1
181,quadbright,26.0,11,1,592.0791625976562,592.0703411102295,1237,1
182,quadbright,27.0,18,1,725.7440090179443,725.7378101348877,1321,1
183,quadbright,28.0,11,0,1194.9617862701416,1194.955587387085,808,1
184,quadbright,29.0,11,1,1483.185052871704,1483.1807613372803,827,1
185,quadbright,30.0,20,1,630.1541328430176,630.1472187042236,1328,1
186,quadbright,5.0,11,1,99.73788261413574,495.0418472290039,816,1
187,quadbright,6.0,11,1,98.83594512939453,494.1549301147461,1176,1
188,quadbright,7.0,11,1,131.95395469665527,526.9041061401367,1345,1
189,quadbright,8.0,11,1,90.77882766723633,487.4699115753174,1346,1
190,quadbright,9.0,11,1,494.90880966186523,494.9049949645996,1203,1
191,quadbright,10.0,11,1,493.8187599182129,493.81279945373535,1298,1
192,quadbright,11.0,11,1,492.4349784851074,492.4302101135254,889,1
193,quadbright,12.0,11,1,494.0829277038574,494.0791130065918,979,1
194,quadbright,13.0,11,1,691.7240619659424,691.7171478271484,1206,1
195,quadbright,14.0,11,1,428.0838966369629,428.07579040527344,1371,1
196,quadbright,15.0,11,1,498.80075454711914,498.7928867340088,1458,1
197,quadbright,16.0,11,1,592.7190780639648,592.7128791809082,1395,1
198,quadbright,17.0,11,1,1288.0358695983887,1288.0299091339111,1086,1
199,quadbright,18.0,11,1,789.7899150848389,789.788007736206,1307,1
200,quadbright,19.0,14,1,498.00705909729004,498.0030059814453,1288,1
201,quadbright,20.0,11,1,1517.1027183532715,1517.0958042144775,883,1
202,quadbright,21.0,11,1,798.6879348754883,798.6860275268555,1068,1
203,quadbright,22.0,11,1,528.7909507751465,528.7840366363525,1297,1
204,quadbright,23.0,11,1,490.4930591583252,490.4921054840088,1280,1
205,quadbright,24.0,11,1,690.4311180114746,690.427303314209,1383,1
206,quadbright,25.0,26,1,500.7011890411377,500.6852149963379,1269,1
207,quadbright,26.0,11,1,491.9130802154541,491.9092655181885,1141,1
208,quadbright,27.0,17,1,493.23177337646484,493.2291507720947,1094,1
209,quadbright,28.0,14,1,691.3390159606934,691.3371086120605,1168,1
210,quadbright,29.0,11,1,789.802074432373,789.7958755493164,1260,1
211,quadbright,30.0,20,1,600.2750396728516,600.2731323242188,1456,1
212,quadbright,5.0,8,1,98.83904457092285,395.91383934020996,1035,1
213,quadbright,6.0,8,1,98.01077842712402,494.75884437561035,1209,1
214,quadbright,7.0,8,1,95.28613090515137,491.3311004638672,970,1
215,quadbright,8.0,8,0,100.85487365722656,1417.6390171051025,1381,1
216,quadbright,9.0,8,1,493.9441680908203,493.9401149749756,1320,1
217,quadbright,10.0,8,1,493.4568405151367,493.452787399292,941,1
218,quadbright,11.0,8,1,493.19911003112793,493.1950569152832,1119,1
219,quadbright,12.0,8,1,492.84815788269043,492.8431510925293,1070,1
220,quadbright,13.0,8,1,592.5240516662598,592.5161838531494,885,1
221,quadbright,14.0,8,1,698.0397701263428,698.0359554290771,1384,1
222,quadbright,15.0,8,1,493.82495880126953,493.8158988952637,1115,1
223,quadbright,16.0,8,1,788.963794708252,788.9578342437744,961,1
224,quadbright,17.0,8,1,1615.375280380249,1615.3662204742432,838,1
225,quadbright,18.0,8,1,1121.9167709350586,1121.9120025634766,861,1
226,quadbright,19.0,14,1,583.9486122131348,583.9476585388184,1422,1
227,quadbright,20.0,8,0,1482.9580783843994,1482.954978942871,831,1
228,quadbright,21.0,8,1,493.9541816711426,493.94893646240234,802,1
229,quadbright,22.0,8,0,1517.6551342010498,1517.652988433838,805,1
230,quadbright,23.0,8,1,1877.967119216919,1877.964973449707,1214,1
231,quadbright,24.0,8,1,921.2050437927246,921.2009906768799,1208,1
232,quadbright,25.0,24,1,394.4711685180664,394.46496963500977,1050,1
233,quadbright,26.0,8,1,791.0571098327637,791.0540103912354,1294,1
234,quadbright,27.0,17,1,631.5600872039795,631.5569877624512,1180,1
235,quadbright,28.0,14,1,492.9521083831787,492.948055267334,1335,1
236,quadbright,29.0,8,1,883.3808898925781,883.3799362182617,1441,1
237,quadbright,30.0,18,1,485.9929084777832,485.9910011291504,1304,1
238,quadbright,5.0,8,1,98.38104248046875,490.41104316711426,1485,1
239,quadbright,6.0,8,1,99.81203079223633,686.5260601043701,1266,1
240,quadbright,7.0,8,1,99.78008270263672,494.6432113647461,1089,1
241,quadbright,8.0,11,1,395.611047744751,395.60723304748535,1137,1
242,quadbright,9.0,8,1,494.5251941680908,494.523286819458,1266,1
243,quadbright,10.0,8,1,393.60928535461426,393.6042785644531,1444,1
244,quadbright,11.0,8,1,525.7871150970459,525.7821083068848,1097,1
245,quadbright,12.0,8,1,495.38707733154297,495.38421630859375,1283,1
246,quadbright,13.0,8,1,494.10009384155273,494.08912658691406,1394,1
247,quadbright,14.0,8,0,1417.9017543792725,1417.8988933563232,976,1
248,quadbright,15.0,8,1,493.8478469848633,493.84498596191406,1421,1
249,quadbright,16.0,8,0,1616.1701679229736,1616.1673069000244,1265,1
250,quadbright,17.0,8,0,1980.3330898284912,1980.3199768066406,1024,1
251,quadbright,18.0,8,1,1120.6178665161133,1120.609998703003,1090,1
252,quadbright,19.0,12,1,592.1869277954102,592.1788215637207,1216,1
253,quadbright,20.0,11,1,622.448205947876,622.4462985992432,1256,1
254,quadbright,21.0,8,1,792.2477722167969,792.2370433807373,992,1
255,quadbright,22.0,11,1,496.3557720184326,496.3529109954834,887,1
256,quadbright,23.0,8,1,798.5899448394775,798.5830307006836,1048,1
257,quadbright,24.0,8,1,692.5277709960938,692.5220489501953,1223,1
258,quadbright,25.0,24,1,493.4678077697754,493.46470832824707,1307,1
259,quadbright,26.0,8,1,1084.8820209503174,1084.8760604858398,1102,1
260,quadbright,27.0,15,1,791.1779880523682,791.1698818206787,1052,1
261,quadbright,28.0,12,1,592.1709537506104,592.1688079833984,1428,1
262,quadbright,29.0,8,1,890.3989791870117,890.390157699585,897,1
263,quadbright,30.0,18,1,691.533088684082,691.5271282196045,1192,1
264,quadbright,5.0,5,1,99.50494766235352,526.663064956665,1494,1
265,quadbright,6.0,5,1,102.10609436035156,497.17140197753906,1306,1
266,quadbright,7.0,5,1,98.81877899169922,492.17891693115234,1326,1
267,quadbright,8.0,11,1,99.5330810546875,494.5032596588135,1037,1
268,quadbright,9.0,5,1,98.08087348937988,1583.5299491882324,1100,1
269,quadbright,10.0,5,0,1121.3078498840332,1121.3047504425049,973,1
270,quadbright,11.0,5,1,1179.807186126709,1179.8059940338135,935,1
271,quadbright,12.0,5,1,789.97802734375,789.9761199951172,1309,1
272,quadbright,13.0,5,1,1022.7861404418945,1022.7808952331543,972,1
273,quadbright,14.0,11,1,527.6632308959961,527.6570320129395,938,1
274,quadbright,15.0,5,0,889.336109161377,889.329195022583,909,1
275,quadbright,16.0,11,1,889.6172046661377,889.6119594573975,1387,1
276,quadbright,17.0,11,1,591.4690494537354,591.4621353149414,895,1
277,quadbright,18.0,5,0,790.07887840271,790.0669574737549,1440,1
278,quadbright,19.0,12,1,589.5919799804688,589.5872116088867,1046,1
279,quadbright,20.0,11,1,527.554988861084,527.5499820709229,1222,1
280,quadbright,21.0,5,0,787.6291275024414,787.6231670379639,871,1
281,quadbright,22.0,11,1,594.5959091186523,594.5940017700195,1420,1
282,quadbright,23.0,5,1,692.0771598815918,692.0733451843262,1012,1
283,quadbright,24.0,5,1,791.6150093078613,791.6128635406494,930,1
284,quadbright,25.0,23,1,529.9327373504639,529.9298763275146,1014,1
285,quadbright,26.0,5,0,791.259765625,791.2559509277344,972,1
286,quadbright,27.0,15,1,592.4568176269531,592.4527645111084,1098,1
287,quadbright,28.0,12,1,790.4269695281982,790.4188632965088,971,1
288,quadbright,29.0,5,0,724.6978282928467,724.6930599212646,1208,1
289,quadbright,30.0,17,1,692.8939819335938,692.8896903991699,1144,1
290,quadbright,5.0,5,1,100.74782371520996,494.614839553833,1134,1
291,quadbright,6.0,5,1,198.23932647705078,495.0671195983887,1436,1
292,quadbright,7.0,5,1,105.46302795410156,499.59492683410645,1180,1
293,quadbright,8.0,9,1,99.57695007324219,493.0920600891113,920,1
294,quadbright,9.0,5,0,922.8951930999756,922.8920936584473,1359,1
295,quadbright,10.0,8,1,494.46797370910645,494.4591522216797,997,1
296,quadbright,11.0,5,0,1515.7577991485596,1515.7549381256104,822,1
297,quadbright,12.0,5,0,892.0490741729736,892.0469284057617,820,1
298,quadbright,13.0,5,0,990.0479316711426,990.0460243225098,840,1
299,quadbright,14.0,11,1,494.6177005767822,494.6136474609375,1051,1
300,quadbright,15.0,8,1,594.2678451538086,594.2556858062744,941,1
301,quadbright,16.0,11,1,592.9908752441406,592.9877758026123,1473,1
302,quadbright,17.0,11,1,495.7771301269531,495.7711696624756,1471,1
303,quadbright,18.0,8,1,888.171911239624,888.1649971008301,1447,1
304,quadbright,19.0,11,1,527.4319648742676,527.4231433868408,1045,1
305,quadbright,20.0,9,1,592.3111438751221,592.3049449920654,1384,1
306,quadbright,21.0,8,1,592.2341346740723,592.2303199768066,1348,1
307,quadbright,22.0,9,1,528.3188819885254,528.3172130584717,1423,1
308,quadbright,23.0,5,0,691.6871070861816,691.6799545288086,1256,1
309,quadbright,24.0,5,0,695.1239109039307,695.1160430908203,966,1
310,quadbright,25.0,23,1,3397.665023803711,3397.6540565490723,1224,1
311,quadbright,26.0,8,1,718.1901931762695,718.189001083374,1481,1
312,quadbright,27.0,14,1,495.8617687225342,495.85890769958496,1181,1
313,quadbright,28.0,11,1,593.0941104888916,593.0919647216797,1041,1
314,quadbright,29.0,8,0,1186.4559650421143,1186.4418983459473,914,1
315,quadbright,30.0,17,1,683.323860168457,683.3217144012451,823,1
316,quadbright,5.0,2,1,99.70307350158691,2306.76007270813,1411,1
317,quadbright,6.0,2,0,96.81105613708496,687.5720024108887,801,1
318,quadbright,7.0,2,1,100.22687911987305,890.0370597839355,1144,1
319,quadbright,8.0,9,1,493.5140609741211,493.50714683532715,1489,1
320,quadbright,9.0,8,1,491.90688133239746,491.9018745422363,1174,1
321,quadbright,10.0,8,1,498.211145401001,498.20804595947266,1016,1
322,quadbright,11.0,8,1,494.79007720947266,494.7841167449951,826,1
323,quadbright,12.0,8,1,395.05982398986816,395.05815505981445,991,1
324,quadbright,13.0,8,1,494.0488338470459,494.0459728240967,1107,1
325,quadbright,14.0,9,1,490.56100845336914,490.56005477905273,867,1
326,quadbright,15.0,8,1,726.4959812164307,726.4938354492188,990,1
327,quadbright,16.0,9,1,491.4729595184326,491.4679527282715,1187,1
328,quadbright,17.0,9,1,493.070125579834,493.06392669677734,1348,1
329,quadbright,18.0,8,0,716.005802154541,716.0048484802246,1368,1
330,quadbright,19.0,11,1,501.2500286102295,501.24597549438477,1079,1
331,quadbright,20.0,9,1,989.6750450134277,989.6690845489502,975,1
332,quadbright,21.0,8,1,591.7367935180664,591.7348861694336,1258,1
333,quadbright,22.0,9,1,586.4660739898682,586.4648818969727,1108,1
334,quadbright,23.0,8,0,690.983772277832,690.9806728363037,1390,1
335,quadbright,24.0,8,1,691.4377212524414,691.4308071136475,1095,1
336,quadbright,25.0,21,1,493.2229518890381,493.21508407592773,906,1
337,quadbright,26.0,8,1,922.6250648498535,922.6210117340088,1207,1
338,quadbright,27.0,14,1,725.0819206237793,725.0790596008301,942,1
339,quadbright,28.0,11,1,626.1551380157471,626.1520385742188,1300,1
340,quadbright,29.0,11,1,681.053876876831,681.0529232025146,1370,1
341,quadbright,30.0,15,1,692.7690505981445,692.7659511566162,1350,1
342,quadbright,5.0,2,0,102.42509841918945,828.4690380096436,869,1
343,quadbright,6.0,5,1,100.6169319152832,426.3749122619629,1116,1
344,quadbright,7.0,2,0,99.56121444702148,792.6790714263916,1229,1
345,quadbright,8.0,8,1,99.83301162719727,526.6821384429932,1449,1
346,quadbright,9.0,8,1,494.34900283813477,494.34614181518555,993,1
347,quadbright,10.0,6,1,493.8809871673584,493.8778877258301,1104,1
348,quadbright,11.0,8,1,593.7042236328125,593.6980247497559,1295,1
349,quadbright,12.0,8,1,790.8320426940918,790.8291816711426,1276,1
350,quadbright,13.0,8,1,591.7060375213623,591.7038917541504,1082,1
351,quadbright,14.0,9,1,491.3039207458496,491.3022518157959,1196,1
352,quadbright,15.0,6,1,722.8648662567139,722.8560447692871,1311,1
353,quadbright,16.0,9,1,691.3118362426758,691.3070678710938,984,1
354,quadbright,17.0,9,1,692.5480365753174,692.5399303436279,952,1
355,quadbright,18.0,9,1,784.8207950592041,784.8188877105713,1292,1
356,quadbright,19.0,9,0,1383.5020065307617,1383.4989070892334,1352,1
357,quadbright,20.0,8,1,987.725019454956,987.7188205718994,1242,1
358,quadbright,21.0,6,0,1318.8118934631348,1318.802833557129,1183,1
359,quadbright,22.0,8,1,688.1299018859863,688.1229877471924,1190,1
360,quadbright,23.0,11,1,593.0402278900146,593.0371284484863,1128,1
361,quadbright,24.0,8,0,691.7991638183594,691.7920112609863,1166,1
362,quadbright,25.0,21,1,492.89774894714355,492.89393424987793,1047,1
363,quadbright,26.0,6,1,625.9520053863525,625.9450912475586,1298,1
364,quadbright,27.0,12,1,922.6779937744141,922.6710796356201,825,1
365,quadbright,28.0,9,0,790.9591197967529,790.9481525421143,1051,1
366,quadbright,29.0,11,1,825.1340389251709,825.1299858093262,1412,1
367,quadbright,30.0,15,1,494.0769672393799,494.07267570495605,1042,1
368,quadbright,5.0,5,1,198.44293594360352,492.44093894958496,1299,1
369,quadbright,6.0,5,1,592.4139022827148,592.4098491668701,885,1
370,quadbright,7.0,5,1,98.53506088256836,889.5201683044434,901,1
371,quadbright,8.0,8,1,96.27008438110352,693.6171054840088,958,1
372,quadbright,9.0,6,1,593.360185623169,593.3530330657959,1106,1
373,quadbright,10.0,6,1,131.61134719848633,526.238203048706,1255,1
374,quadbright,11.0,6,0,1285.8920097351074,1285.8848571777344,1157,1
375,quadbright,12.0,6,1,495.3131675720215,495.30911445617676,1421,1
376,quadbright,13.0,6,1,494.3652153015137,494.36330795288086,1266,1
377,quadbright,14.0,8,0,888.3650302886963,888.3631229400635,894,0
378,quadbright,14.0,8,1,691.7788982391357,691.7738914489746,951,1
379,quadbright,15.0,6,0,691.7970180511475,691.7948722839355,832,1
380,quadbright,16.0,8,1,591.8972492218018,591.8941497802734,1009,1
381,quadbright,17.0,8,1,723.6957550048828,723.6940860748291,1278,1
382,quadbright,18.0,9,1,692.5318241119385,692.5289630889893,1139,1
383,quadbright,19.0,11,1,592.6210880279541,592.6170349121094,1065,1
384,quadbright,20.0,8,0,790.2412414550781,790.2381420135498,1258,0
385,quadbright,20.0,8,1,1198.828935623169,1198.8227367401123,846,0
386,quadbright,20.0,8,0,691.5469169616699,691.5452480316162,1189,1
387,quadbright,21.0,8,1,1782.2561264038086,1782.2508811950684,880,1
388,quadbright,22.0,8,1,593.2137966156006,593.2068824768066,911,1
389,quadbright,23.0,11,1,591.3491249084473,591.3479328155518,818,1
390,quadbright,24.0,9,1,716.1698341369629,716.1688804626465,950,0
391,quadbright,24.0,9,1,592.4201011657715,592.4170017242432,953,1
392,quadbright,25.0,20,1,591.8600559234619,591.8560028076172,967,1
393,quadbright,26.0,6,0,783.9367389678955,783.9360237121582,1468,1
394,quadbright,27.0,12,0,691.6568279266357,691.6549205780029,824,1
395,quadbright,28.0,11,1,691.8528079986572,691.8437480926514,1303,1
396,quadbright,29.0,9,1,626.8167495727539,626.8129348754883,1377,1
397,quadbright,30.0,14,1,593.5800075531006,593.5759544372559,1145,1
