trial,condition,eccentricity,magnitude,correct,srt_ms,keyboard_rt_ms,pre_change_ms,valid
1,control,5.0,20,0,98.57511520385742,7292.290925979614,1460,1
2,control,6.0,20,1,198.49300384521484,1714.669942855835,1094,1
3,control,7.0,20,1,229.65407371520996,626.1298656463623,1445,1
4,control,8.0,20,1,98.93417358398438,791.5830612182617,1333,1
5,control,9.0,20,1,198.9879608154297,725.3329753875732,1442,1
6,control,10.0,20,1,1010.3528499603271,1010.3507041931152,1147,1
7,control,11.0,20,1,681.096076965332,681.0948848724365,1425,1
8,control,12.0,20,1,689.9809837341309,689.9759769439697,1359,1
9,control,13.0,20,1,693.4788227081299,693.4778690338135,894,1
10,control,14.0,20,1,593.656063079834,593.6551094055176,1360,1
11,control,15.0,20,1,682.9948425292969,682.9938888549805,1259,1
12,control,16.0,20,1,989.8128509521484,989.8109436035156,1268,1
13,control,17.0,20,1,1515.575885772705,1515.570878982544,1222,1
14,control,18.0,20,1,880.2719116210938,880.2709579467773,850,1
15,control,19.0,20,1,814.2898082733154,814.288854598999,1200,1
16,control,20.0,20,1,780.4369926452637,780.4358005523682,1285,1
17,control,21.0,20,1,890.3920650482178,890.3899192810059,1059,1
18,control,22.0,20,1,593.6558246612549,593.6548709869385,1070,1
19,control,23.0,20,1,885.6618404388428,885.65993309021,1158,1
20,control,24.0,20,1,594.728946685791,594.7270393371582,943,1
21,control,25.0,20,1,834.791898727417,834.7887992858887,1019,1
22,control,26.0,20,1,879.6260356903076,879.6248435974121,1180,1
23,control,27.0,20,1,591.7890071868896,591.7870998382568,1349,1
24,control,28.0,20,1,899.6889591217041,899.6851444244385,1118,1
25,control,29.0,20,1,1671.9741821289062,1671.9732284545898,926,1
26,control,30.0,20,1,781.6519737243652,781.6512584686279,1049,1
27,control,5.0,23,1,101.1037826538086,980.259895324707,1088,1
28,control,6.0,20,1,99.26509857177734,735.1889610290527,833,1
29,control,7.0,20,1,196.60305976867676,780.2610397338867,1300,1
30,control,8.0,20,1,592.4570560455322,592.4530029296875,1363,1
31,control,9.0,20,1,891.2849426269531,891.2777900695801,1479,1
32,control,10.0,20,1,100.11410713195801,1011.5737915039062,828,1
33,control,11.0,20,1,790.3008460998535,790.2998924255371,1058,1
34,control,12.0,20,1,592.7860736846924,592.7810668945312,948,1
35,control,13.0,20,0,812.0739459991455,812.0729923248291,1168,1
36,control,14.0,20,1,680.4962158203125,680.4952621459961,1382,1
37,control,15.0,20,1,780.6799411773682,780.6789875030518,1094,1
38,control,16.0,20,1,1000.1702308654785,1000.1671314239502,1333,1
39,control,17.0,20,1,879.6489238739014,879.647970199585,884,1
40,control,18.0,20,1,1229.768991470337,1229.7642230987549,1227,1
41,control,19.0,20,1,1317.322015762329,1317.3201084136963,1176,1
42,control,20.0,20,1,591.9530391693115,591.9511318206787,1408,1
43,control,21.0,20,1,987.1368408203125,987.1358871459961,1229,1
44,control,22.0,20,1,814.0521049499512,814.0521049499512,1137,1
45,control,23.0,20,1,987.8509044647217,987.8449440002441,1392,1
46,control,24.0,20,1,822.0880031585693,822.0851421356201,1221,1
47,control,25.0,20,1,880.7070255279541,880.7060718536377,986,1
48,control,26.0,20,1,879.3621063232422,879.3609142303467,1044,1
49,control,27.0,20,1,979.0971279144287,979.0959358215332,832,1
50,control,28.0,20,1,724.341869354248,724.3409156799316,1186,1
51,control,29.0,20,1,1112.5500202178955,1112.5500202178955,1028,1
52,control,30.0,20,1,789.8569107055664,789.8528575897217,1301,1
53,control,5.0,23,1,97.96595573425293,692.1019554138184,865,1
54,control,6.0,17,1,98.27780723571777,1021.1849212646484,1425,1
55,control,7.0,17,1,99.19095039367676,783.3819389343262,1466,1
56,control,8.0,17,1,99.22981262207031,880.5627822875977,1146,1
57,control,9.0,17,1,692.9421424865723,692.9380893707275,1140,1
58,control,10.0,17,1,692.3081874847412,692.3060417175293,1226,1
59,control,11.0,17,1,891.2627696990967,891.2618160247803,1241,1
60,control,12.0,17,1,890.8419609069824,890.8331394195557,1449,1
61,control,13.0,23,1,979.5122146606445,979.511022567749,1442,1
62,control,14.0,17,1,792.5717830657959,792.5677299499512,946,1
63,control,15.0,17,1,889.4128799438477,889.4097805023193,815,1
64,control,16.0,17,1,880.3791999816895,880.378246307373,1252,1
65,control,17.0,17,1,780.4379463195801,780.4369926452637,1359,1
66,control,18.0,17,1,2009.8261833190918,2009.822130203247,1043,1
67,control,19.0,17,1,791.1350727081299,791.1269664764404,892,1
68,control,20.0,17,1,692.7139759063721,692.7139759063721,946,1
69,control,21.0,17,1,812.3400211334229,812.3390674591064,1484,1
70,control,22.0,17,1,693.108081817627,693.1061744689941,1473,1
71,control,23.0,17,1,683.3682060241699,683.3672523498535,1047,1
72,control,24.0,17,1,911.8897914886475,911.888837814331,1020,1
73,control,25.0,17,1,879.044771194458,879.0438175201416,1483,1
74,control,26.0,17,1,682.5480461120605,682.546854019165,1346,1
75,control,27.0,17,1,792.1080589294434,792.107105255127,1173,1
76,control,28.0,17,1,889.3980979919434,889.394998550415,860,1
77,control,29.0,17,1,681.3440322875977,681.3430786132812,948,1
78,control,30.0,17,1,692.0931339263916,692.0900344848633,1471,1
79,control,5.0,20,1,101.02605819702148,791.5587425231934,1427,1
80,control,6.0,17,1,99.19404983520508,890.3031349182129,1200,1
81,control,7.0,17,1,98.89483451843262,692.0020580291748,1249,1
82,control,8.0,17,1,99.04313087463379,698.4000205993652,1127,1
83,control,9.0,17,1,198.2271671295166,594.243049621582,1111,1
84,control,10.0,17,1,197.88169860839844,1396.4898586273193,1342,1
85,control,11.0,17,1,879.7099590301514,879.7078132629395,1034,1
86,control,12.0,17,1,1022.705078125,1022.7041244506836,972,1
87,control,13.0,23,1,780.4222106933594,780.421257019043,1377,1
88,control,14.0,17,1,794.5570945739746,794.550895690918,1049,1
89,control,15.0,17,1,713.8187885284424,713.817834854126,1249,1
90,control,16.0,17,1,725.8188724517822,725.816011428833,893,1
91,control,17.0,17,1,690.6299591064453,690.6280517578125,1332,1
92,control,18.0,17,1,822.2169876098633,822.2131729125977,1398,1
93,control,19.0,17,0,1375.424861907959,1375.4239082336426,828,1
94,control,20.0,17,1,880.5549144744873,880.5539608001709,1495,1
95,control,21.0,17,1,890.1410102844238,890.1381492614746,1332,1
96,control,22.0,17,1,891.2320137023926,891.2310600280762,1179,1
97,control,23.0,17,1,901.9708633422852,901.9689559936523,1356,1
98,control,24.0,17,1,690.4771327972412,690.4721260070801,1141,1
99,control,25.0,17,1,1010.9078884124756,1010.9066963195801,1031,1
100,control,26.0,17,1,690.9208297729492,690.9158229827881,1076,1
101,control,27.0,17,1,781.1400890350342,781.1391353607178,1127,1
102,control,28.0,17,1,594.0320491790771,594.027042388916,997,1
103,control,29.0,17,1,1392.9009437561035,1392.8968906402588,1134,1
104,control,30.0,17,1,812.6316070556641,812.6299381256104,1330,1
105,control,5.0,20,1,195.51992416381836,878.6492347717285,1239,1
106,control,6.0,14,1,199.19681549072266,891.2549018859863,1094,1
107,control,7.0,14,1,879.518985748291,879.5168399810791,1000,1
108,control,8.0,14,1,198.0741024017334,790.5080318450928,916,1
109,control,9.0,14,1,98.38390350341797,789.506196975708,1131,1
110,control,10.0,14,1,924.3688583374023,924.365758895874,1168,1
111,control,11.0,14,1,792.3710346221924,792.3698425292969,819,1
112,control,12.0,14,1,790.9078598022461,790.9038066864014,1191,1
113,control,13.0,21,1,900.9737968444824,900.9687900543213,923,1
114,control,14.0,14,1,792.0100688934326,792.0100688934326,855,1
115,control,15.0,14,1,781.4929485321045,781.4919948577881,1070,1
116,control,16.0,14,1,786.747932434082,786.7467403411865,1080,1
117,control,17.0,14,1,613.8019561767578,613.7998104095459,1189,1
118,control,18.0,14,1,681.9651126861572,681.9639205932617,1193,0
119,control,18.0,14,1,897.5310325622559,897.529125213623,1288,1
120,control,19.0,20,1,593.4088230133057,593.40500831604,921,1
121,control,20.0,14,1,889.9600505828857,889.927864074707,1029,1
122,control,21.0,14,1,803.3592700958252,803.3552169799805,1172,0
123,control,21.0,14,1,694.4320201873779,694.429874420166,1243,1
124,control,22.0,14,1,825.0398635864258,825.0350952148438,1043,1
125,control,23.0,14,1,779.50119972229,779.5000076293945,1372,1
126,control,24.0,14,1,594.1109657287598,594.1061973571777,1375,1
127,control,25.0,14,1,714.1566276550293,714.1556739807129,952,1
128,control,26.0,14,1,987.7429008483887,987.7369403839111,1450,1
129,control,27.0,14,1,888.6849880218506,888.6818885803223,1357,1
130,control,28.0,14,1,911.1361503601074,911.1349582672119,1470,1
131,control,29.0,14,1,682.5058460235596,682.5048923492432,1179,1
132,control,30.0,14,1,781.3723087310791,781.3711166381836,1043,1
133,control,5.0,17,1,98.77991676330566,780.4210186004639,892,1
134,control,6.0,14,1,100.84104537963867,824.8419761657715,1166,1
135,control,7.0,14,1,881.890058517456,881.8888664245605,1183,1
136,control,8.0,14,1,296.61011695861816,880.0811767578125,1215,1
137,control,9.0,14,1,396.81196212768555,632.0791244506836,953,1
138,control,10.0,14,1,98.77419471740723,879.5630931854248,1306,1
139,control,11.0,14,1,198.836088180542,1573.2181072235107,1109,1
140,control,12.0,14,1,782.3300361633301,782.3290824890137,826,1
141,control,13.0,21,1,883.4750652313232,883.4741115570068,1347,0
142,control,13.0,21,1,681.8058490753174,681.8058490753174,1039,1
143,control,14.0,14,1,627.1650791168213,627.1641254425049,1199,0
144,control,14.0,14,1,504.8220157623291,504.8189163208008,1433,0
145,control,14.0,14,1,712.9919528961182,712.989091873169,1151,1
146,control,15.0,14,1,692.451000213623,692.451000213623,914,1
147,control,16.0,14,1,593.7230587005615,593.7221050262451,1162,1
148,control,17.0,14,1,723.3216762542725,723.3197689056396,808,1
149,control,18.0,14,1,1020.301103591919,1020.2929973602295,1077,1
150,control,19.0,20,1,791.5868759155273,791.5849685668945,1025,1
151,control,20.0,14,1,3200.0720500946045,3200.068950653076,1200,1
152,control,21.0,14,1,1087.4409675598145,1087.4378681182861,887,1
153,control,22.0,14,1,692.7468776702881,692.7430629730225,871,1
154,control,23.0,14,1,791.1770343780518,791.1748886108398,1480,0
155,control,23.0,14,1,977.9901504516602,977.9891967773438,1034,1
156,control,24.0,14,0,1077.5468349456787,1077.544927597046,1335,1
157,control,25.0,14,0,593.9908027648926,593.9898490905762,1229,1
158,control,26.0,14,1,891.0439014434814,891.0410404205322,992,1
159,control,27.0,14,1,793.8270568847656,793.8232421875,1322,1
160,control,28.0,14,1,1494.2290782928467,1494.2269325256348,1338,0
161,control,28.0,14,1,692.2228336334229,692.2187805175781,860,1
162,control,29.0,14,1,880.6178569793701,880.6169033050537,1014,1
163,control,30.0,14,1,2418.7068939208984,2418.7018871307373,1437,0
164,control,30.0,14,1,791.414737701416,791.4109230041504,1076,0
165,control,30.0,14,1,1814.5959377288818,1814.586877822876,1100,1
166,control,5.0,17,1,98.78301620483398,590.9721851348877,1159,1
167,control,6.0,11,1,791.7089462280273,791.70823097229,950,1
168,control,7.0,11,1,99.14708137512207,691.2620067596436,1396,1
169,control,8.0,11,1,98.42109680175781,680.4611682891846,956,1
170,control,9.0,11,1,99.62081909179688,891.8089866638184,879,1
171,control,10.0,11,1,692.8408145904541,692.8379535675049,1230,1
172,control,11.0,11,1,1911.214828491211,1911.2110137939453,1044,1
173,control,12.0,11,1,621.5000152587891,621.4990615844727,1130,1
174,control,13.0,20,1,801.8560409545898,801.8500804901123,1077,1
175,control,14.0,11,1,1175.7569313049316,1175.7550239562988,1281,1
176,control,15.0,11,1,880.180835723877,880.1789283752441,1476,1
177,control,16.0,11,1,926.2840747833252,926.2819290161133,1407,1
178,control,17.0,11,1,703.2241821289062,703.2220363616943,1314,1
179,control,18.0,11,1,879.8601627349854,879.8589706420898,1203,1
180,control,19.0,18,1,794.4121360778809,794.4040298461914,1144,1
181,control,20.0,11,1,683.0191612243652,683.0179691314697,1055,1
182,control,21.0,11,1,824.4469165802002,824.4462013244629,947,1
183,control,22.0,11,1,1111.128807067871,1111.1280918121338,924,0
184,control,22.0,11,1,882.033109664917,882.0321559906006,1068,1
185,control,23.0,11,1,624.7768402099609,624.7727870941162,1223,1
186,control,24.0,17,1,692.0208930969238,692.0139789581299,801,1
187,control,25.0,17,1,1705.4319381713867,1705.4309844970703,1012,1
188,control,26.0,11,1,792.3119068145752,792.3069000244141,958,1
189,control,27.0,11,1,713.8841152191162,713.8822078704834,957,1
190,control,28.0,11,1,890.8758163452148,890.8741474151611,1418,1
191,control,29.0,11,0,7687.202930450439,7687.198162078857,1185,1
192,control,30.0,11,0,1120.2070713043213,1120.203971862793,877,1
193,control,5.0,14,1,624.4077682495117,624.4020462036133,896,1
194,control,6.0,11,1,100.06999969482422,890.9289836883545,1240,1
195,control,7.0,11,1,197.8287696838379,691.7707920074463,1024,1
196,control,8.0,11,1,102.63395309448242,504.0099620819092,1159,1
197,control,9.0,11,1,98.9980697631836,2276.482105255127,1494,1
198,control,10.0,11,1,801.3050556182861,801.2979030609131,871,1
199,control,11.0,11,1,691.7791366577148,691.7719841003418,826,0
200,control,11.0,11,1,725.1617908477783,725.1570224761963,839,1
201,control,12.0,11,1,879.6100616455078,879.6091079711914,1078,1
202,control,13.0,20,1,787.4979972839355,787.4960899353027,1149,1
203,control,14.0,11,1,680.8669567108154,680.866003036499,1027,1
204,control,15.0,11,1,798.0232238769531,798.0153560638428,1187,1
205,control,16.0,11,1,590.3241634368896,590.3191566467285,1469,1
206,control,17.0,11,1,713.1671905517578,713.1659984588623,1126,1
207,control,18.0,11,1,834.6571922302246,834.6540927886963,821,1
208,control,19.0,18,1,1087.3351097106934,1087.3322486877441,1305,1
209,control,20.0,11,1,1088.1640911102295,1088.1600379943848,1428,1
210,control,21.0,11,1,690.5629634857178,690.558910369873,1088,1
211,control,22.0,11,1,891.0548686981201,891.0510540008545,1164,1
212,control,23.0,11,1,591.9098854064941,591.9060707092285,1332,1
213,control,24.0,17,1,782.5961112976074,782.595157623291,1429,1
214,control,25.0,17,1,494.4639205932617,494.4629669189453,1302,1
215,control,26.0,11,1,890.0120258331299,890.0051116943359,931,1
216,control,27.0,11,1,1119.9686527252197,1119.964838027954,1292,1
217,control,28.0,11,1,1209.4757556915283,1209.475040435791,1076,1
218,control,29.0,14,0,1397.0181941986084,1397.0141410827637,1325,1
219,control,30.0,14,1,1823.5690593719482,1823.5671520233154,896,1
220,control,5.0,14,1,98.1590747833252,593.148946762085,1101,1
221,control,6.0,8,0,197.71385192871094,15773.222923278809,985,1
222,control,7.0,8,1,98.37985038757324,2615.72003364563,1304,1
223,control,8.0,8,1,491.5781021118164,491.5759563446045,1342,1
224,control,9.0,8,1,623.553991317749,623.5499382019043,1121,1
225,control,10.0,8,1,880.1510334014893,880.1500797271729,1401,1
226,control,11.0,8,1,878.6802291870117,878.6790370941162,1033,1
227,control,12.0,8,1,594.0840244293213,594.0790176391602,1229,1
228,control,13.0,18,1,725.74782371521,725.7447242736816,1153,1
229,control,14.0,8,1,592.9832458496094,592.980146408081,1477,1
230,control,15.0,8,1,592.332124710083,592.3290252685547,1138,1
231,control,16.0,8,1,881.8988800048828,881.8979263305664,1385,1
232,control,17.0,8,1,1276.2911319732666,1276.2889862060547,808,1
233,control,18.0,8,1,715.1341438293457,715.1331901550293,1070,1
234,control,19.0,17,1,699.4209289550781,699.4149684906006,1098,1
235,control,20.0,8,0,1484.4269752502441,1484.4229221343994,920,1
236,control,21.0,8,1,1219.294786453247,1219.2859649658203,1022,1
237,control,22.0,8,1,1089.4768238067627,1089.4699096679688,853,1
238,control,23.0,8,1,1286.5519523620605,1286.5500450134277,1460,1
239,control,24.0,15,1,890.6979560852051,890.693187713623,971,1
240,control,25.0,15,1,535.0236892700195,535.0167751312256,1282,1
241,control,26.0,8,0,1612.886905670166,1612.8828525543213,965,1
242,control,27.0,8,1,988.9979362487793,988.9910221099854,900,1
243,control,28.0,8,1,1176.5720844268799,1176.5711307525635,843,1
244,control,29.0,17,0,1615.2629852294922,1615.2539253234863,1157,0
245,control,29.0,17,1,786.888837814331,786.8869304656982,1056,1
246,control,30.0,14,1,800.9209632873535,800.9178638458252,1065,1
247,control,5.0,11,1,99.68090057373047,781.7709445953369,893,1
248,control,6.0,11,1,99.39098358154297,592.3521518707275,1319,1
249,control,7.0,8,1,593.6031341552734,593.6000347137451,1104,1
250,control,8.0,8,1,888.0689144134521,888.0648612976074,1342,1
251,control,9.0,8,1,791.733980178833,791.729211807251,818,1
252,control,10.0,8,1,703.40895652771,703.4060955047607,1248,1
253,control,11.0,8,1,790.2300357818604,790.2281284332275,1245,1
254,control,12.0,8,1,888.8800144195557,888.8771533966064,1030,1
255,control,13.0,18,1,1771.9807624816895,1771.9800472259521,1472,1
256,control,14.0,8,1,1011.206865310669,1011.2061500549316,1100,1
257,control,15.0,8,1,883.9430809020996,883.9390277862549,1085,1
258,control,16.0,8,1,583.0330848693848,583.0318927764893,1215,1
259,control,17.0,8,1,890.8729553222656,890.8679485321045,1490,1
260,control,18.0,8,0,1009.5789432525635,1009.5779895782471,940,1
261,control,19.0,17,1,583.0888748168945,583.0879211425781,1281,1
262,control,20.0,11,1,1605.4680347442627,1605.4670810699463,942,1
263,control,21.0,8,1,493.4377670288086,493.43371391296387,1092,1
264,control,22.0,8,1,934.863805770874,934.8607063293457,851,1
265,control,23.0,8,1,886.5139484405518,886.5101337432861,907,1
266,control,24.0,15,1,489.99619483947754,489.99500274658203,1225,1
267,control,25.0,15,1,589.5020961761475,589.4999504089355,1479,1
268,control,26.0,11,1,683.4821701049805,683.4821701049805,1209,1
269,control,27.0,8,0,1276.3357162475586,1276.3347625732422,1180,1
270,control,28.0,8,0,1275.2938270568848,1275.291919708252,1068,1
271,control,29.0,17,1,1077.5408744812012,1077.5399208068848,843,1
272,control,30.0,12,1,681.312084197998,681.3111305236816,860,1
273,control,5.0,11,1,197.96514511108398,693.4893131256104,1088,1
274,control,6.0,11,1,101.22799873352051,814.8119449615479,1358,1
275,control,7.0,5,1,99.60293769836426,724.1101264953613,1326,1
276,control,8.0,5,1,791.9862270355225,791.9812202453613,951,1
277,control,9.0,5,0,1672.8100776672363,1672.8100776672363,1012,1
278,control,10.0,5,1,711.8830680847168,711.8821144104004,926,1
279,control,11.0,5,1,1308.0129623413086,1308.0108165740967,954,1
280,control,12.0,5,1,1112.4658584594727,1112.4649047851562,1472,1
281,control,13.0,17,1,98.24395179748535,692.392110824585,1489,1
282,control,14.0,5,1,887.7229690551758,887.7160549163818,899,1
283,control,15.0,5,1,801.8550872802734,801.8503189086914,858,1
284,control,16.0,5,1,990.5238151550293,990.5228614807129,966,1
285,control,17.0,5,0,893.355131149292,893.3539390563965,1140,1
286,control,18.0,11,1,1010.7879638671875,1010.7870101928711,1453,1
287,control,19.0,15,1,1186.650276184082,1186.643362045288,1300,1
288,control,20.0,11,0,1275.557041168213,1275.5560874938965,1240,1
289,control,21.0,5,1,890.5839920043945,890.5820846557617,884,0
290,control,21.0,5,1,693.0649280548096,693.0618286132812,879,1
291,control,22.0,5,1,702.2099494934082,702.2058963775635,1031,1
292,control,23.0,5,1,989.7370338439941,989.7360801696777,1315,1
293,control,24.0,14,1,814.8400783538818,814.8391246795654,1498,1
294,control,25.0,14,1,1188.5788440704346,1188.5759830474854,1386,1
295,control,26.0,11,1,813.4608268737793,813.4598731994629,937,0
296,control,26.0,11,1,814.7120475769043,814.7108554840088,815,0
297,control,26.0,11,1,1285.8686447143555,1285.8638763427734,827,1
298,control,27.0,11,1,590.7917022705078,590.7838344573975,876,1
299,control,28.0,11,1,692.1532154083252,692.1501159667969,867,1
300,control,29.0,15,1,690.485954284668,690.4850006103516,968,1
301,control,30.0,12,1,880.885124206543,880.8839321136475,951,1
302,control,5.0,8,1,198.67181777954102,892.5840854644775,857,1
303,control,6.0,9,1,99.18689727783203,427.0288944244385,1330,1
304,control,7.0,5,1,198.958158493042,627.2001266479492,1016,1
305,control,8.0,5,0,781.7270755767822,781.7261219024658,1136,1
306,control,9.0,8,1,100.78597068786621,694.3068504333496,854,1
307,control,10.0,5,1,196.76613807678223,723.4630584716797,1111,1
308,control,11.0,5,1,922.5220680236816,922.5189685821533,925,1
309,control,12.0,5,1,781.3708782196045,781.3708782196045,937,1
310,control,13.0,17,1,582.7229022979736,582.7209949493408,1106,1
311,control,14.0,5,0,692.2962665557861,692.288875579834,1216,1
312,control,15.0,5,1,1130.0349235534668,1130.0327777862549,847,1
313,control,16.0,5,1,682.9040050506592,682.9040050506592,898,1
314,control,17.0,8,1,724.3931293487549,724.3900299072266,1049,1
315,control,18.0,11,1,636.3430023193359,636.3387107849121,1500,1
316,control,19.0,15,1,725.4660129547119,725.4579067230225,1068,1
317,control,20.0,12,1,889.8978233337402,889.8947238922119,1350,1
318,control,21.0,5,1,602.3440361022949,602.3387908935547,1254,1
319,control,22.0,5,0,988.6620044708252,988.6550903320312,1075,1
320,control,23.0,5,0,999.9270439147949,999.9251365661621,1439,1
321,control,24.0,14,1,590.6848907470703,590.67702293396,937,1
322,control,25.0,14,1,593.9657688140869,593.9610004425049,1078,1
323,control,26.0,9,0,922.8811264038086,922.875165939331,1106,1
324,control,27.0,11,1,1120.661973953247,1120.6598281860352,952,1
325,control,28.0,11,1,690.9260749816895,690.9210681915283,1199,0
326,control,28.0,11,1,1123.3720779418945,1123.3673095703125,1486,1
327,control,29.0,15,0,682.7499866485596,682.7490329742432,1169,1
328,control,30.0,11,0,1020.6530094146729,1020.6480026245117,809,0
329,control,30.0,11,0,999.1910457611084,999.1869926452637,1393,1
330,control,5.0,8,1,241.22309684753418,634.6089839935303,1072,1
331,control,6.0,9,1,99.09725189208984,889.5061016082764,1357,1
332,control,7.0,2,0,97.30887413024902,1869.5628643035889,831,1
333,control,8.0,8,1,624.9659061431885,624.9620914459229,1072,1
334,control,9.0,8,1,98.99687767028809,494.4000244140625,1484,1
335,control,10.0,2,1,98.59085083007812,890.6779289245605,1449,0
336,control,10.0,2,0,98.42801094055176,1229.445219039917,1239,1
337,control,11.0,2,0,933.4437847137451,933.4390163421631,1236,0
338,control,11.0,2,0,198.03309440612793,1095.2479839324951,824,0
339,control,11.0,2,0,197.29995727539062,811.4490509033203,1021,0
340,control,11.0,2,0,1386.348009109497,1386.3470554351807,1377,1
341,control,12.0,2,1,1614.0170097351074,1614.0151023864746,1449,1
342,control,13.0,15,1,583.2498073577881,583.2488536834717,1340,1
343,control,14.0,8,1,888.4339332580566,888.430118560791,1201,1
344,control,15.0,2,1,1275.434970855713,1275.4340171813965,1269,1
345,control,16.0,2,1,792.0339107513428,792.0289039611816,1394,1
346,control,17.0,8,1,725.2440452575684,725.243091583252,1366,1
347,control,18.0,9,1,680.7501316070557,680.7491779327393,1078,1
348,control,19.0,14,1,593.817949295044,593.8119888305664,1461,1
349,control,20.0,12,1,823.6169815063477,823.6169815063477,1350,1
350,control,21.0,2,0,681.4010143280029,681.4000606536865,1194,1
351,control,22.0,8,0,681.7638874053955,681.7626953125,1199,1
352,control,23.0,8,1,822.7393627166748,822.7353096008301,1193,1
353,control,24.0,12,1,1373.5952377319336,1373.5942840576172,1406,1
354,control,25.0,12,1,919.8400974273682,919.8291301727295,916,1
355,control,26.0,11,1,889.6219730377197,889.617919921875,1464,1
356,control,27.0,9,1,890.58518409729,890.5782699584961,949,0
357,control,27.0,9,1,1077.0878791809082,1077.0869255065918,906,1
358,control,28.0,9,1,823.9650726318359,823.9591121673584,1352,1
359,control,29.0,17,1,891.5619850158691,891.5610313415527,856,1
360,control,30.0,12,0,1782.0398807525635,1782.0360660552979,1427,1
361,control,5.0,5,1,98.5250473022461,693.5451030731201,1133,1
362,control,6.0,8,1,97.92208671569824,692.0459270477295,1057,1
363,control,7.0,5,1,695.2300071716309,695.227861404419,853,1
364,control,8.0,8,1,100.13484954833984,594.7110652923584,885,1
365,control,9.0,6,1,824.9709606170654,824.9669075012207,1472,1
366,control,10.0,5,1,725.0630855560303,725.0590324401855,1072,1
367,control,11.0,5,1,593.3191776275635,593.3139324188232,1158,1
368,control,12.0,2,1,891.9448852539062,891.9417858123779,1288,1
369,control,13.0,15,1,890.4600143432617,890.455961227417,929,1
370,control,14.0,8,1,98.6628532409668,692.997932434082,1447,1
371,control,15.0,2,1,889.5969390869141,889.5938396453857,889,1
372,control,16.0,2,1,879.5566558837891,879.5559406280518,860,1
373,control,17.0,6,1,588.3941650390625,588.3898735046387,990,1
374,control,18.0,9,0,1286.4189147949219,1286.4108085632324,999,1
375,control,19.0,14,1,789.6640300750732,789.6599769592285,936,0
376,control,19.0,14,1,1298.3589172363281,1298.3548641204834,1496,1
377,control,20.0,11,1,595.2880382537842,595.2868461608887,1244,1
378,control,21.0,5,1,788.259744644165,788.2568836212158,937,1
379,control,22.0,11,1,724.8661518096924,724.8620986938477,1263,1
380,control,23.0,8,1,781.0628414154053,781.062126159668,1419,1
381,control,24.0,12,1,592.9358005523682,592.9288864135742,1382,1
382,control,25.0,12,0,1078.0360698699951,1078.0348777770996,1009,0
383,control,25.0,12,1,801.3498783111572,801.3472557067871,1289,1
384,control,26.0,11,1,878.9379596710205,878.936767578125,1362,1
385,control,27.0,9,0,494.83513832092285,494.8310852050781,1478,1
386,control,28.0,9,1,2406.87894821167,2406.867027282715,834,1
387,control,29.0,17,1,585.9510898590088,585.9498977661133,1357,1
388,control,30.0,14,1,988.4099960327148,988.408088684082,992,1
389,control,5.0,5,1,99.00307655334473,879.7500133514404,1050,1
390,control,6.0,8,1,197.1428394317627,690.4630661010742,1008,1
391,control,7.0,5,1,98.83904457092285,1230.6568622589111,1056,1
392,control,8.0,6,1,690.7057762145996,690.6998157501221,1268,1
393,control,9.0,6,1,99.7629165649414,493.89195442199707,810,1
1,quadbright,5.0,20,1,99.83706474304199,1188.2109642028809,1240,1
2,quadbright,6.0,20,1,197.8600025177002,593.5380458831787,1054,1
3,quadbright,7.0,20,1,96.81367874145508,889.3728256225586,846,1
4,quadbright,8.0,20,1,99.42913055419922,593.3859348297119,1037,1
5,quadbright,9.0,20,1,297.0461845397949,889.5392417907715,1006,1
6,quadbright,10.0,20,1,199.0342140197754,724.3971824645996,1123,1
7,quadbright,11.0,20,1,890.3160095214844,890.3148174285889,1343,1
8,quadbright,12.0,20,1,1011.152982711792,1011.1517906188965,1432,1
9,quadbright,13.0,20,1,780.8361053466797,780.8349132537842,860,1
10,quadbright,14.0,20,1,902.0130634307861,902.0099639892578,1157,1
11,quadbright,15.0,20,1,593.8880443572998,593.8851833343506,1103,1
12,quadbright,16.0,20,1,822.9548931121826,822.9529857635498,1375,1
13,quadbright,17.0,20,1,921.2939739227295,921.2889671325684,985,1
14,quadbright,18.0,20,1,692.5299167633057,692.5230026245117,998,1
15,quadbright,19.0,20,1,691.8151378631592,691.810131072998,1168,1
16,quadbright,20.0,20,1,725.0559329986572,725.0549793243408,1401,1
17,quadbright,21.0,20,1,592.1580791473389,592.1549797058105,1307,1
18,quadbright,22.0,20,1,856.4908504486084,856.489896774292,1120,1
19,quadbright,23.0,20,0,1514.746904373169,1514.742136001587,1312,1
20,quadbright,24.0,20,1,702.9323577880859,702.930212020874,1193,1
21,quadbright,25.0,20,1,813.0617141723633,813.0607604980469,1049,1
22,quadbright,26.0,20,1,1030.4558277130127,1030.4532051086426,1166,1
23,quadbright,27.0,20,1,692.6548480987549,692.6529407501221,1114,1
24,quadbright,28.0,20,0,1584.3052864074707,1584.299087524414,1059,1
25,quadbright,29.0,20,1,725.200891494751,725.1999378204346,986,1
26,quadbright,30.0,20,1,1078.190803527832,1078.1896114349365,1357,1
27,quadbright,5.0,20,1,96.27485275268555,822.2649097442627,1376,1
28,quadbright,6.0,20,1,690.7899379730225,690.7861232757568,1064,1
29,quadbright,7.0,20,1,98.39606285095215,689.8620128631592,855,1
30,quadbright,8.0,20,1,931.3507080078125,931.3490390777588,1007,1
31,quadbright,9.0,20,1,1703.6359310150146,1703.6349773406982,980,1
32,quadbright,10.0,20,1,823.4939575195312,823.4901428222656,878,1
33,quadbright,11.0,20,1,625.6158351898193,625.6027221679688,921,1
34,quadbright,12.0,20,1,814.119815826416,814.1188621520996,1379,1
35,quadbright,13.0,20,1,988.4181022644043,988.4130954742432,1213,1
36,quadbright,14.0,20,1,897.8579044342041,897.8509902954102,1355,1
37,quadbright,15.0,20,1,998.8420009613037,998.837947845459,1403,1
38,quadbright,16.0,20,1,782.0589542388916,782.0580005645752,901,1
39,quadbright,17.0,20,1,1002.7811527252197,1002.777099609375,1332,1
40,quadbright,18.0,20,1,813.1699562072754,813.1687641143799,804,1
41,quadbright,19.0,20,1,792.0260429382324,792.0207977294922,1166,1
42,quadbright,20.0,20,1,887.6039981842041,887.5999450683594,1358,1
43,quadbright,21.0,20,1,898.0419635772705,898.0388641357422,802,1
44,quadbright,22.0,20,1,988.9159202575684,988.9090061187744,1446,1
45,quadbright,23.0,23,1,881.321907043457,881.3211917877197,1168,1
46,quadbright,24.0,20,1,881.2601566314697,881.2580108642578,1315,1
47,quadbright,25.0,20,1,888.2529735565186,888.2458209991455,1210,1
48,quadbright,26.0,20,1,890.8698558807373,890.8638954162598,1238,1
49,quadbright,27.0,20,1,1020.9500789642334,1020.9469795227051,1044,1
50,quadbright,28.0,23,1,1088.5589122772217,1088.5581970214844,1455,1
51,quadbright,29.0,20,0,1606.8520545959473,1606.8511009216309,893,1
52,quadbright,30.0,20,0,2606.2049865722656,2606.2002182006836,1076,1
53,quadbright,5.0,17,1,97.8240966796875,1375.5791187286377,833,1
54,quadbright,6.0,17,1,99.85780715942383,682.0178031921387,974,1
55,quadbright,7.0,17,1,99.0140438079834,932.2950839996338,1437,1
56,quadbright,8.0,17,1,789.1218662261963,789.1199588775635,1492,1
57,quadbright,9.0,17,1,95.17884254455566,977.5559902191162,803,1
58,quadbright,10.0,17,1,682.0857524871826,682.0847988128662,1121,1
59,quadbright,11.0,17,1,681.6098690032959,681.6089153289795,1191,1
60,quadbright,12.0,17,1,1012.7301216125488,1012.7291679382324,899,1
61,quadbright,13.0,17,1,879.5449733734131,879.5440196990967,1007,1
62,quadbright,14.0,17,1,889.420747756958,889.4128799438477,814,1
63,quadbright,15.0,17,1,1683.379888534546,1683.3770275115967,1350,1
64,quadbright,16.0,17,1,1080.6310176849365,1080.629825592041,1179,1
65,quadbright,17.0,17,1,889.611005783081,889.6069526672363,866,1
66,quadbright,18.0,17,1,780.7841300964355,780.78293800354,1174,1
67,quadbright,19.0,17,1,781.6920280456543,781.6910743713379,1132,1
68,quadbright,20.0,17,1,691.619873046875,691.6158199310303,870,1
69,quadbright,21.0,17,1,901.0119438171387,901.0069370269775,1163,1
70,quadbright,22.0,17,1,887.747049331665,887.7429962158203,1333,1
71,quadbright,23.0,23,0,1770.66969871521,1770.6687450408936,1131,1
72,quadbright,24.0,17,1,790.8883094787598,790.8852100372314,1166,1
73,quadbright,25.0,17,1,691.856861114502,691.8530464172363,1418,1
74,quadbright,26.0,17,1,681.4889907836914,681.4877986907959,1162,1
75,quadbright,27.0,17,1,1011.3999843597412,1011.3987922668457,1091,1
76,quadbright,28.0,23,1,880.6130886077881,880.6121349334717,1418,1
77,quadbright,29.0,23,1,989.4819259643555,989.4778728485107,913,1
78,quadbright,30.0,23,1,890.9599781036377,890.9530639648438,1413,1
79,quadbright,5.0,17,1,98.53005409240723,891.0129070281982,1285,1
80,quadbright,6.0,17,1,98.12784194946289,625.5228519439697,998,1
81,quadbright,7.0,17,1,692.777156829834,692.7762031555176,1112,1
82,quadbright,8.0,17,1,593.9271450042725,593.926191329956,1338,1
83,quadbright,9.0,17,1,86.83586120605469,1010.4811191558838,1261,1
84,quadbright,10.0,17,1,721.7850685119629,721.782922744751,1369,1
85,quadbright,11.0,17,1,1087.0940685272217,1087.0928764343262,899,1
86,quadbright,12.0,17,1,1013.9193534851074,1013.9181613922119,969,1
87,quadbright,13.0,17,1,691.9276714324951,691.9219493865967,1376,1
88,quadbright,14.0,17,1,2186.1560344696045,2186.1510276794434,1200,1
89,quadbright,15.0,17,1,790.0474071502686,790.0443077087402,923,1
90,quadbright,16.0,17,1,882.0297718048096,882.0288181304932,901,1
91,quadbright,17.0,17,1,683.0458641052246,683.0449104309082,875,1
92,quadbright,18.0,17,1,679.8191070556641,679.8181533813477,1020,1
93,quadbright,19.0,17,1,800.5690574645996,800.5611896514893,1226,1
94,quadbright,20.0,17,0,812.4022483825684,812.4003410339355,1392,1
95,quadbright,21.0,17,1,1525.6731510162354,1525.6710052490234,1452,1
96,quadbright,22.0,17,1,1376.6579627990723,1376.6570091247559,897,1
97,quadbright,23.0,26,1,682.4419498443604,682.440996170044,1003,1
98,quadbright,24.0,17,1,988.2183074951172,988.2121086120605,1230,1
99,quadbright,25.0,17,1,1011.2481117248535,1011.2471580505371,1486,1
100,quadbright,26.0,17,1,978.9531230926514,978.9519309997559,1272,1
101,quadbright,27.0,17,1,988.7740612030029,988.7709617614746,933,1
102,quadbright,28.0,20,1,813.8422966003418,813.8401508331299,1303,1
103,quadbright,29.0,23,1,923.630952835083,923.6288070678711,1174,1
104,quadbright,30.0,23,1,791.2569046020508,791.2540435791016,803,1
105,quadbright,5.0,14,1,96.80914878845215,680.670976638794,943,1
106,quadbright,6.0,14,1,98.9840030670166,801.3498783111572,912,1
107,quadbright,7.0,14,1,99.46823120117188,924.0410327911377,1301,1
108,quadbright,8.0,14,1,100.82101821899414,714.8571014404297,864,1
109,quadbright,9.0,14,1,715.3098583221436,715.3089046478271,1110,1
110,quadbright,10.0,14,1,990.440845489502,990.426778793335,1289,1
111,quadbright,11.0,14,1,780.9650897979736,780.9638977050781,1206,1
112,quadbright,12.0,14,1,878.4158229827881,878.4151077270508,1392,1
113,quadbright,13.0,14,1,792.5550937652588,792.5529479980469,1028,1
114,quadbright,14.0,14,1,887.6609802246094,887.657880783081,1178,1
115,quadbright,15.0,14,1,822.0739364624023,822.066068649292,1246,1
116,quadbright,16.0,14,0,1516.1359310150146,1516.1328315734863,886,1
117,quadbright,17.0,14,1,822.7577209472656,822.7529525756836,1204,1
118,quadbright,18.0,14,1,1781.1930179595947,1781.1861038208008,1260,1
119,quadbright,19.0,14,1,988.2969856262207,988.292932510376,971,1
120,quadbright,20.0,20,1,791.5177345275879,791.5120124816895,1009,1
121,quadbright,21.0,14,1,723.3271598815918,723.3188152313232,1286,1
122,quadbright,22.0,14,1,691.0762786865234,691.0719871520996,926,1
123,quadbright,23.0,26,1,690.5348300933838,690.5291080474854,802,1
124,quadbright,24.0,14,1,880.4061412811279,880.4042339324951,831,1
125,quadbright,25.0,14,1,813.4689331054688,813.4679794311523,1004,1
126,quadbright,26.0,14,1,890.9192085266113,890.9130096435547,1212,1
127,quadbright,27.0,14,0,1573.4529495239258,1573.4519958496094,921,1
128,quadbright,28.0,20,1,879.9450397491455,879.9440860748291,1169,1
129,quadbright,29.0,21,1,593.5821533203125,593.5811996459961,824,1
130,quadbright,30.0,21,1,593.768835067749,593.7657356262207,955,1
131,quadbright,5.0,14,1,98.92988204956055,691.950798034668,1393,1
132,quadbright,6.0,14,1,135.6210708618164,1024.3539810180664,818,1
133,quadbright,7.0,14,1,197.57604598999023,791.4228439331055,1435,1
134,quadbright,8.0,14,1,199.9509334564209,891.2770748138428,882,1
135,quadbright,9.0,14,1,196.90918922424316,591.3019180297852,970,1
136,quadbright,10.0,14,1,99.31015968322754,593.0371284484863,950,1
137,quadbright,11.0,14,1,596.6296195983887,596.627950668335,1403,1
138,quadbright,12.0,14,1,692.0487880706787,692.0418739318848,1132,1
139,quadbright,13.0,14,1,880.2227973937988,880.2218437194824,1173,1
140,quadbright,14.0,14,1,987.6759052276611,987.6718521118164,1394,1
141,quadbright,15.0,14,1,990.570068359375,990.5691146850586,1000,1
142,quadbright,16.0,17,1,1275.0391960144043,1275.0380039215088,1044,1
143,quadbright,17.0,14,1,681.2469959259033,681.2450885772705,1140,1
144,quadbright,18.0,14,1,901.5717506408691,901.5679359436035,1488,1
145,quadbright,19.0,14,1,879.6606063842773,879.65989112854,1424,1
146,quadbright,20.0,20,1,591.4897918701172,591.486930847168,1320,0
147,quadbright,20.0,20,1,1794.3382263183594,1794.3339347839355,880,1
148,quadbright,21.0,14,1,824.4197368621826,824.4190216064453,843,1
149,quadbright,22.0,14,1,691.0059452056885,691.0028457641602,1079,1
150,quadbright,23.0,24,1,582.2288990020752,582.2279453277588,1174,1
151,quadbright,24.0,14,1,604.0761470794678,604.0699481964111,828,0
152,quadbright,24.0,14,1,791.2271022796631,791.2249565124512,1114,1
153,quadbright,25.0,14,1,891.8600082397461,891.8590545654297,839,1
154,quadbright,26.0,14,1,726.0053157806396,726.0012626647949,1411,1
155,quadbright,27.0,17,1,725.1811027526855,725.1801490783691,880,1
156,quadbright,28.0,17,1,780.0767421722412,780.0760269165039,1011,0
157,quadbright,28.0,17,1,2308.212995529175,2308.206081390381,1482,1
158,quadbright,29.0,21,0,1218.041181564331,1218.0359363555908,1005,1
159,quadbright,30.0,21,1,814.98122215271,814.9802684783936,830,1
160,quadbright,5.0,11,1,98.85597229003906,583.3621025085449,1246,1
161,quadbright,6.0,11,1,780.6661128997803,780.6639671325684,1165,1
162,quadbright,7.0,11,1,197.5266933441162,878.7016868591309,944,1
163,quadbright,8.0,11,1,98.65093231201172,1109.8778247833252,1065,0
164,quadbright,8.0,11,1,193.33672523498535,985.4569435119629,869,1
165,quadbright,9.0,11,1,98.39296340942383,594.0737724304199,1216,1
166,quadbright,10.0,11,1,198.35376739501953,1705.1010131835938,887,1
167,quadbright,11.0,11,1,792.1848297119141,792.1779155731201,965,0
168,quadbright,11.0,11,1,99.52783584594727,689.3246173858643,1110,1
169,quadbright,12.0,11,1,591.9699668884277,591.9671058654785,829,1
170,quadbright,13.0,11,1,979.820728302002,979.8197746276855,844,1
171,quadbright,14.0,11,1,626.1320114135742,626.1312961578369,857,1
172,quadbright,15.0,11,1,793.3487892150879,793.3478355407715,1045,1
173,quadbright,16.0,17,0,100.85296630859375,691.2860870361328,1357,0
174,quadbright,16.0,17,1,713.6750221252441,713.6740684509277,1247,0
175,quadbright,16.0,17,1,888.6280059814453,888.6227607727051,1039,1
176,quadbright,17.0,11,1,989.5799160003662,989.5739555358887,1396,1
177,quadbright,18.0,11,1,1033.4529876708984,1033.4498882293701,1245,1
178,quadbright,19.0,11,0,2068.382978439331,2068.380832672119,882,1
179,quadbright,20.0,18,0,623.9778995513916,623.9726543426514,829,1
180,quadbright,21.0,11,1,922.6937294006348,922.6880073547363,1075,1
181,quadbright,22.0,11,0,1287.0547771453857,1287.0538234710693,1294,1
182,quadbright,23.0,24,0,2012.131690979004,2012.1288299560547,801,0
183,quadbright,23.0,24,1,1088.4459018707275,1088.4449481964111,1340,1
184,quadbright,24.0,11,1,879.5778751373291,879.5769214630127,1183,1
185,quadbright,25.0,11,1,889.01686668396,889.0149593353271,851,1
186,quadbright,26.0,11,0,1310.4560375213623,1310.455083847046,920,1
187,quadbright,27.0,17,1,791.4001941680908,791.3880348205566,1269,1
188,quadbright,28.0,17,1,682.4941635131836,682.4922561645508,1440,1
189,quadbright,29.0,23,1,882.4357986450195,882.4341297149658,1435,1
190,quadbright,30.0,20,1,990.0259971618652,990.0221824645996,1023,0
191,quadbright,30.0,20,0,1573.106288909912,1573.1050968170166,1343,1
192,quadbright,5.0,11,1,330.3558826446533,714.7331237792969,1158,1
193,quadbright,6.0,11,1,97.50080108642578,891.5719985961914,824,1
194,quadbright,7.0,11,1,98.96707534790039,603.3840179443359,1444,1
195,quadbright,8.0,11,1,395.8170413970947,782.7777862548828,1049,1
196,quadbright,9.0,11,1,791.9449806213379,791.9442653656006,838,1
197,quadbright,10.0,11,1,793.0009365081787,792.996883392334,1034,1
198,quadbright,11.0,11,1,791.2609577178955,791.2571430206299,1242,1
199,quadbright,12.0,11,1,714.3359184265137,714.3349647521973,1259,1
200,quadbright,13.0,11,1,693.4051513671875,693.403959274292,1225,1
201,quadbright,14.0,11,1,702.7928829193115,702.7888298034668,1203,1
202,quadbright,15.0,11,1,1990.013837814331,1990.009069442749,840,1
203,quadbright,16.0,15,1,689.7320747375488,689.7311210632324,1109,1
204,quadbright,17.0,11,1,879.3389797210693,879.3380260467529,1179,1
205,quadbright,18.0,11,1,592.012882232666,592.008113861084,996,1
206,quadbright,19.0,14,1,690.4668807983398,690.464973449707,961,1
207,quadbright,20.0,20,1,1012.2947692871094,1012.2940540313721,1285,1
208,quadbright,21.0,11,1,791.9418811798096,791.9409275054932,1460,1
209,quadbright,22.0,14,1,780.6253433227539,780.6241512298584,1012,1
210,quadbright,23.0,23,1,681.5831661224365,681.581974029541,1153,1
211,quadbright,24.0,11,0,1297.1317768096924,1297.1289157867432,981,1
212,quadbright,25.0,11,1,1209.747076034546,1209.7458839416504,1111,1
213,quadbright,26.0,14,0,1307.6000213623047,1307.5990676879883,1126,1
214,quadbright,27.0,15,1,2110.4559898376465,2110.447645187378,828,1
215,quadbright,28.0,14,1,734.6529960632324,734.6470355987549,913,1
216,quadbright,29.0,23,1,1088.0413055419922,1088.0382061004639,1177,1
217,quadbright,30.0,21,1,791.8491363525391,791.8460369110107,1058,1
218,quadbright,5.0,8,1,98.30713272094727,625.8277893066406,1335,1
219,quadbright,6.0,8,1,99.17020797729492,594.120979309082,1471,1
220,quadbright,7.0,8,1,592.8618907928467,592.860221862793,1325,1
221,quadbright,8.0,8,1,1318.9918994903564,1318.9888000488281,1071,1
222,quadbright,9.0,8,1,913.3868217468262,913.3868217468262,948,1
223,quadbright,10.0,8,1,681.2620162963867,681.2610626220703,916,1
224,quadbright,11.0,8,1,692.3999786376953,692.3978328704834,1132,1
225,quadbright,12.0,8,1,1011.5032196044922,1011.5010738372803,1434,1
226,quadbright,13.0,8,1,988.3747100830078,988.3718490600586,1215,1
227,quadbright,14.0,8,1,1176.4848232269287,1176.4841079711914,1173,1
228,quadbright,15.0,8,1,1286.8318557739258,1286.8292331695557,1025,1
229,quadbright,16.0,15,1,978.1970977783203,978.196382522583,838,1
230,quadbright,17.0,8,1,1494.1492080688477,1494.1461086273193,1459,1
231,quadbright,18.0,8,1,977.8659343719482,977.8649806976318,1242,1
232,quadbright,19.0,14,1,733.9732646942139,733.9692115783691,1208,1
233,quadbright,20.0,20,1,614.8531436920166,614.8521900177002,1213,1
234,quadbright,21.0,8,1,977.5779247283936,977.5760173797607,962,1
235,quadbright,22.0,14,1,1021.9271183013916,1021.9230651855469,1187,1
236,quadbright,23.0,23,1,1020.4007625579834,1020.3969478607178,1477,0
237,quadbright,23.0,23,1,685.4429244995117,685.4417324066162,1492,1
238,quadbright,24.0,14,1,1678.2290935516357,1678.2269477844238,971,1
239,quadbright,25.0,8,0,1572.3252296447754,1572.3240375518799,1458,1
240,quadbright,26.0,17,1,724.2469787597656,724.2441177368164,984,1
241,quadbright,27.0,15,1,725.0359058380127,725.0328063964844,1068,1
242,quadbright,28.0,14,1,2086.7440700531006,2086.7350101470947,1188,1
243,quadbright,29.0,22,1,714.7161960601807,714.7140502929688,1437,1
244,quadbright,30.0,21,1,987.3831272125244,987.3800277709961,802,1
245,quadbright,5.0,8,1,206.23087882995605,800.9400367736816,1384,1
246,quadbright,6.0,8,1,197.36599922180176,790.755033493042,1116,1
247,quadbright,7.0,8,1,882.2920322418213,882.291316986084,1091,1
248,quadbright,8.0,8,1,194.7000026702881,779.6621322631836,1387,1
249,quadbright,9.0,8,1,791.3548946380615,791.3470268249512,1412,1
250,quadbright,10.0,8,1,1209.9528312683105,1209.9518775939941,1033,1
251,quadbright,11.0,8,1,798.7604141235352,798.7582683563232,971,1
252,quadbright,12.0,8,1,594.6550369262695,594.6500301361084,1141,1
253,quadbright,13.0,8,1,692.1930313110352,692.1858787536621,1075,1
254,quadbright,14.0,8,0,1487.1151447296143,1487.1129989624023,954,1
255,quadbright,15.0,8,1,889.193058013916,889.1899585723877,949,1
256,quadbright,16.0,14,1,99.00093078613281,1495.4540729522705,1263,0
257,quadbright,16.0,14,1,1110.5890274047852,1110.5871200561523,965,1
258,quadbright,17.0,8,0,1472.9900360107422,1472.9893207550049,1011,1
259,quadbright,18.0,8,1,880.8138370513916,880.8119297027588,1030,1
260,quadbright,19.0,12,1,700.2100944519043,700.2031803131104,869,1
261,quadbright,20.0,19,1,692.6929950714111,692.6913261413574,1499,1
262,quadbright,21.0,8,1,891.5371894836426,891.5371894836426,1465,1
263,quadbright,22.0,12,1,1032.780647277832,1032.77587890625,1386,0
264,quadbright,22.0,12,0,1297.4448204040527,1297.441005706787,1045,1
265,quadbright,23.0,21,1,889.9068832397461,889.9030685424805,1314,1
266,quadbright,24.0,14,1,593.8930511474609,593.8820838928223,1110,1
267,quadbright,25.0,11,1,682.7778816223145,682.776927947998,1239,1
268,quadbright,26.0,17,1,987.8139495849609,987.8091812133789,849,1
269,quadbright,27.0,14,1,693.8669681549072,693.8638687133789,1257,1
270,quadbright,28.0,11,0,1099.7040271759033,1099.7018814086914,1409,1
271,quadbright,29.0,22,0,1517.8680419921875,1517.8649425506592,821,1
272,quadbright,30.0,20,1,725.3272533416748,725.3201007843018,855,1
273,quadbright,5.0,5,1,99.02000427246094,714.1821384429932,1469,1
274,quadbright,6.0,5,1,133.63003730773926,814.2950534820557,1201,1
275,quadbright,7.0,5,1,199.10502433776855,1375.1599788665771,962,1
276,quadbright,8.0,5,1,888.3299827575684,888.3230686187744,1141,1
277,quadbright,9.0,5,1,1120.4771995544434,1120.4752922058105,1065,1
278,quadbright,10.0,5,1,593.8360691070557,593.8351154327393,1416,1
279,quadbright,11.0,5,1,890.2289867401123,890.2227878570557,976,1
280,quadbright,12.0,5,0,900.9501934051514,900.9461402893066,1364,1
281,quadbright,13.0,5,0,1010.5628967285156,1010.5619430541992,1014,1
282,quadbright,14.0,11,1,880.7930946350098,880.7930946350098,1257,1
283,quadbright,15.0,5,1,1274.906873703003,1274.9059200286865,1391,1
284,quadbright,16.0,14,1,593.8613414764404,593.8560962677002,951,1
285,quadbright,17.0,11,1,635.2331638336182,635.228157043457,1128,1
286,quadbright,18.0,5,1,1714.3428325653076,1714.331865310669,1082,1
287,quadbright,19.0,12,1,883.7220668792725,883.721113204956,975,1
288,quadbright,20.0,19,1,734.2770099639893,734.2729568481445,817,1
289,quadbright,21.0,5,0,1276.8938541412354,1276.892900466919,906,1
290,quadbright,22.0,14,0,1176.5151023864746,1176.513910293579,935,1
291,quadbright,23.0,21,0,1131.4067840576172,1131.4048767089844,833,1
292,quadbright,24.0,12,0,900.0241756439209,900.0179767608643,1054,1
293,quadbright,25.0,11,1,990.1771545410156,990.1728630065918,1475,1
294,quadbright,26.0,15,1,979.0089130401611,979.0070056915283,967,1
295,quadbright,27.0,14,1,734.5049381256104,734.492301940918,1096,1
296,quadbright,28.0,14,1,1194.2129135131836,1194.2107677459717,1238,1
297,quadbright,29.0,23,1,1000.8447170257568,1000.8409023284912,1300,1
298,quadbright,30.0,20,1,1275.3641605377197,1275.3632068634033,1273,1
299,quadbright,5.0,5,1,96.62580490112305,879.767894744873,1356,1
300,quadbright,6.0,5,1,98.86908531188965,791.5740013122559,1234,1
301,quadbright,7.0,5,1,97.39804267883301,724.3549823760986,916,1
302,quadbright,8.0,5,1,913.1128787994385,913.1121635437012,1044,1
303,quadbright,9.0,5,0,629.3959617614746,629.3931007385254,1235,1
304,quadbright,10.0,5,1,98.93298149108887,1119.568109512329,827,0
305,quadbright,10.0,5,1,1483.790636062622,1483.7865829467773,960,1
306,quadbright,11.0,5,0,98.30999374389648,1513.5180950164795,1332,1
307,quadbright,12.0,8,1,693.0069923400879,693.0060386657715,1486,1
308,quadbright,13.0,8,1,99.33090209960938,802.4289608001709,1293,1
309,quadbright,14.0,11,1,1296.670913696289,1296.6678142547607,927,1
310,quadbright,15.0,5,1,889.8611068725586,889.8591995239258,1394,1
311,quadbright,16.0,12,1,496.2160587310791,496.2148666381836,984,0
312,quadbright,16.0,12,1,632.9588890075684,632.9529285430908,1293,1
313,quadbright,17.0,11,0,703.5410404205322,703.5379409790039,1175,1
314,quadbright,18.0,5,0,791.8558120727539,791.8548583984375,1375,1
315,quadbright,19.0,11,1,594.0449237823486,594.0389633178711,1389,1
316,quadbright,20.0,18,1,722.5549221038818,722.5520610809326,1216,1
317,quadbright,21.0,8,1,889.8580074310303,889.8539543151855,1411,1
318,quadbright,22.0,15,1,692.3699378967285,692.3689842224121,1002,1
319,quadbright,23.0,23,1,625.5359649658203,625.525951385498,980,1
320,quadbright,24.0,14,1,624.9010562896729,624.8960494995117,964,1
321,quadbright,25.0,9,1,604.4130325317383,604.4080257415771,916,1
322,quadbright,26.0,15,1,922.6579666137695,922.6551055908203,987,0
323,quadbright,26.0,15,1,890.6280994415283,890.6269073486328,1254,1
324,quadbright,27.0,12,1,814.5730495452881,814.5718574523926,997,1
325,quadbright,28.0,14,1,899.7890949249268,899.7852802276611,978,1
326,quadbright,29.0,23,0,1031.722068786621,1031.7168235778809,1193,1
327,quadbright,30.0,19,1,1077.7437686920166,1077.7428150177002,1030,1
328,quadbright,5.0,2,0,1198.1451511383057,1198.1420516967773,1227,0
329,quadbright,5.0,2,0,1022.1199989318848,1022.1178531646729,1391,1
330,quadbright,6.0,2,1,205.02305030822754,798.9470958709717,1040,1
331,quadbright,7.0,2,0,1020.8890438079834,1020.8821296691895,1425,1
332,quadbright,8.0,2,1,99.25389289855957,921.5669631958008,1369,1
333,quadbright,9.0,8,1,692.5749778747559,692.5661563873291,1378,1
334,quadbright,10.0,2,1,877.8650760650635,877.8641223907471,1097,1
335,quadbright,11.0,8,1,384.1969966888428,1076.948881149292,1413,1
336,quadbright,12.0,8,1,878.5817623138428,878.5810470581055,1065,1
337,quadbright,13.0,8,1,814.4669532775879,814.4662380218506,859,1
338,quadbright,14.0,9,1,680.5098056793213,680.5088520050049,858,1
339,quadbright,15.0,2,1,1310.863971710205,1310.8630180358887,826,1
340,quadbright,16.0,12,1,822.1700191497803,822.1688270568848,1394,0
341,quadbright,16.0,12,0,684.0560436248779,684.0548515319824,1020,1
342,quadbright,17.0,12,1,802.9329776763916,802.9303550720215,1387,1
343,quadbright,18.0,8,1,793.8261032104492,793.8249111175537,1485,1
344,quadbright,19.0,11,1,824.2497444152832,824.2437839508057,1189,1
345,quadbright,20.0,18,0,802.6957511901855,802.6928901672363,1491,1
346,quadbright,21.0,8,1,1593.864917755127,1593.860149383545,1282,0
347,quadbright,21.0,8,1,1021.7628479003906,1021.7547416687012,979,0
348,quadbright,21.0,8,0,889.4808292388916,889.4729614257812,935,1
349,quadbright,22.0,15,1,790.4870510101318,790.4798984527588,1233,1
350,quadbright,23.0,23,1,604.5467853546143,604.543924331665,840,1
351,quadbright,24.0,14,1,889.897346496582,889.8932933807373,1391,1
352,quadbright,25.0,9,0,933.758020401001,933.7561130523682,1144,1
353,quadbright,26.0,14,0,723.6390113830566,723.6268520355225,1218,1
354,quadbright,27.0,12,1,1276.4809131622314,1276.4801979064941,1402,1
355,quadbright,28.0,12,1,1284.2178344726562,1284.2059135437012,1375,1
356,quadbright,29.0,24,0,1208.2931995391846,1208.2922458648682,867,1
357,quadbright,30.0,19,1,780.4360389709473,780.4350852966309,1245,1
358,quadbright,5.0,5,1,98.04964065551758,880.4638385772705,1082,1
359,quadbright,6.0,2,1,1396.988868713379,1396.9860076904297,890,1
360,quadbright,7.0,5,1,198.72117042541504,923.4030246734619,1202,1
361,quadbright,8.0,2,0,230.14307022094727,1020.8139419555664,907,1
362,quadbright,9.0,8,1,790.0607585906982,790.0557518005371,812,1
363,quadbright,10.0,2,1,900.9349346160889,900.9320735931396,1237,1
364,quadbright,11.0,8,1,1020.805835723877,1020.798921585083,1449,1
365,quadbright,12.0,6,1,790.4400825500488,790.4362678527832,1204,1
366,quadbright,13.0,6,1,899.7488021850586,899.7409343719482,1469,1
367,quadbright,14.0,9,1,689.622163772583,689.6183490753174,1350,1
368,quadbright,15.0,2,0,1715.1548862457275,1715.1522636413574,1487,1
369,quadbright,16.0,14,1,712.820291519165,712.8181457519531,925,1
370,quadbright,17.0,12,1,781.2857627868652,781.2848091125488,1034,1
371,quadbright,18.0,8,0,1802.454948425293,1802.4539947509766,925,1
372,quadbright,19.0,9,0,723.8321304321289,723.8283157348633,1168,1
373,quadbright,20.0,19,1,594.1958427429199,594.1948890686035,1421,1
374,quadbright,21.0,9,1,721.9252586364746,721.9231128692627,1281,1
375,quadbright,22.0,14,1,1020.5566883087158,1020.5519199371338,1251,1
376,quadbright,23.0,22,0,1287.5211238861084,1287.513256072998,1364,0
377,quadbright,23.0,22,1,922.7368831634521,922.7359294891357,1162,1
378,quadbright,24.0,13,1,702.0719051361084,702.0690441131592,1097,1
379,quadbright,25.0,11,1,1318.1939125061035,1318.188190460205,1441,1
380,quadbright,26.0,15,1,1814.5170211791992,1814.5122528076172,1337,1
381,quadbright,27.0,11,0,1582.8628540039062,1582.8590393066406,852,0
382,quadbright,27.0,11,1,1032.6180458068848,1032.6151847839355,1429,1
383,quadbright,28.0,12,1,1207.2701454162598,1207.2691917419434,1069,1
384,quadbright,30.0,18,1,791.2938594818115,791.2890911102295,1458,1
385,quadbright,5.0,5,1,99.34306144714355,702.7409076690674,1349,1
386,quadbright,6.0,1,0,131.10113143920898,1011.2309455871582,1251,1
387,quadbright,7.0,5,1,593.242883682251,593.2378768920898,1026,1
388,quadbright,8.0,5,1,101.08375549316406,595.7658290863037,960,1
389,quadbright,9.0,6,1,198.5480785369873,988.0609512329102,1147,1
390,quadbright,10.0,1,0,1287.0111465454102,1287.0080471038818,1068,1
391,quadbright,11.0,6,1,791.8791770935059,791.8782234191895,981,1
392,quadbright,12.0,6,1,197.45111465454102,1099.519968032837,965,1
393,quadbright,13.0,6,0,879.8649311065674,879.863977432251,1162,1
394,quadbright,14.0,8,1,681.4432144165039,681.4420223236084,842,1
395,quadbright,15.0,5,0,582.6771259307861,582.6759338378906,1026,1
396,quadbright,16.0,14,1,726.2461185455322,726.2418270111084,812,1
397,quadbright,17.0,11,1,1285.714864730835,1285.7139110565186,1033,1
398,quadbright,18.0,9,1,823.3180046081543,823.3120441436768,805,1
399,quadbright,19.0,11,1,880.1519870758057,880.1519870758057,1282,1
400,quadbright,20.0,19,1,693.4289932250977,693.4282779693604,1432,1
401,quadbright,21.0,9,1,978.3148765563965,978.3139228820801,856,1
402,quadbright,22.0,14,1,693.490743637085,693.4878826141357,938,1
403,quadbright,23.0,22,1,593.1329727172852,593.127965927124,1416,1
404,quadbright,24.0,13,1,780.8361053466797,780.8341979980469,1213,1
405,quadbright,25.0,11,0,899.6939659118652,899.691104888916,1086,1
406,quadbright,26.0,15,1,582.5190544128418,582.5181007385254,1034,1
407,quadbright,27.0,11,1,779.5450687408447,779.5431613922119,1428,1
