trial,condition,eccentricity,magnitude,correct,srt_ms,keyboard_rt_ms,pre_change_ms,valid
1,control,5.0,20,1,131.05010986328125,526.0241031646729,1279,1
2,control,6.0,20,1,98.40512275695801,493.8371181488037,1122,1
3,control,7.0,20,1,296.9849109649658,593.329906463623,1453,1
4,control,8.0,20,1,98.0689525604248,490.7371997833252,961,1
5,control,9.0,20,1,197.7090835571289,691.8148994445801,1233,1
6,control,10.0,20,1,592.8692817687988,592.8671360015869,1145,1
7,control,11.0,20,1,625.3509521484375,625.3330707550049,1310,1
8,control,12.0,20,1,592.8478240966797,592.843770980835,1173,1
9,control,13.0,20,1,427.13379859924316,427.1259307861328,1037,1
10,control,14.0,20,1,1021.481990814209,1021.4781761169434,884,1
11,control,15.0,20,1,527.1592140197754,527.1511077880859,1061,1
12,control,16.0,20,1,98.27208518981934,493.4232234954834,813,0
13,control,16.0,20,1,395.1430320739746,395.1408863067627,1389,1
14,control,17.0,20,1,1021.0568904876709,1021.0521221160889,1288,1
15,control,18.0,20,1,526.7970561981201,526.7918109893799,1180,1
16,control,19.0,20,1,395.3127861022949,395.310640335083,857,1
17,control,20.0,20,1,493.0412769317627,493.0391311645508,1276,1
18,control,21.0,20,1,493.6213493347168,493.6201572418213,1353,1
19,control,22.0,20,1,494.0810203552246,494.0788745880127,1372,1
20,control,23.0,20,1,394.3829536437988,394.3779468536377,1191,1
21,control,24.0,20,1,493.84522438049316,493.8390254974365,838,1
22,control,25.0,20,1,393.8772678375244,393.8732147216797,1248,1
23,control,26.0,20,1,594.1309928894043,594.1271781921387,1232,1
24,control,27.0,20,1,493.3807849884033,493.3788776397705,1353,1
25,control,28.0,20,1,592.6849842071533,592.6828384399414,817,1
26,control,29.0,20,1,493.96610260009766,493.96300315856934,1139,1
27,control,30.0,20,1,494.10510063171387,494.0989017486572,1071,1
28,control,5.0,20,1,99.51591491699219,395.86591720581055,1079,1
29,control,6.0,20,1,131.21891021728516,526.9339084625244,928,1
30,control,7.0,20,1,97.6560115814209,921.8869209289551,1245,1
31,control,8.0,20,1,394.30809020996094,394.3040370941162,1362,1
32,control,9.0,20,1,199.40900802612305,594.6259498596191,1402,1
33,control,10.0,20,1,623.6863136291504,623.6841678619385,1013,1
34,control,11.0,20,1,523.7948894500732,523.7891674041748,897,1
35,control,12.0,20,1,822.8616714477539,822.8590488433838,1478,1
36,control,13.0,20,1,492.7241802215576,492.71392822265625,1400,1
37,control,14.0,20,1,626.3580322265625,626.3489723205566,927,1
38,control,15.0,20,1,593.379020690918,593.3771133422852,1124,1
39,control,16.0,20,1,493.2732582092285,493.2680130004883,1154,1
40,control,17.0,20,1,494.08411979675293,494.0810203552246,844,1
41,control,18.0,20,1,889.4269466400146,889.423131942749,1308,1
42,control,19.0,20,1,790.3118133544922,790.308952331543,1030,1
43,control,20.0,20,1,594.0248966217041,594.0210819244385,829,1
44,control,21.0,20,1,626.4221668243408,626.4159679412842,966,1
45,control,22.0,20,1,593.7232971191406,593.7201976776123,1340,1
46,control,23.0,20,1,592.7059650421143,592.7040576934814,964,1
47,control,24.0,20,1,592.3500061035156,592.3430919647217,1185,1
48,control,25.0,20,1,691.3659572601318,691.364049911499,897,1
49,control,26.0,20,1,391.93010330200195,391.92891120910645,898,1
50,control,27.0,20,1,493.9441680908203,493.941068649292,911,1
51,control,28.0,20,1,593.0161476135254,593.0130481719971,942,0
52,control,28.0,20,1,493.65806579589844,493.6530590057373,1434,1
53,control,29.0,20,1,693.1579113006592,693.1509971618652,1495,1
54,control,30.0,20,0,625.3089904785156,625.3042221069336,1016,1
55,control,5.0,17,1,197.7241039276123,591.3450717926025,1352,1
56,control,6.0,17,1,626.4591217041016,626.4510154724121,1153,1
57,control,7.0,17,1,493.74890327453613,493.7472343444824,1048,1
58,control,8.0,17,1,196.2759494781494,988.2221221923828,1023,1
59,control,9.0,17,1,493.715763092041,493.710994720459,1107,1
60,control,10.0,17,1,492.63882637023926,492.63691902160645,941,0
61,control,10.0,17,1,423.3872890472412,423.3851432800293,974,1
62,control,11.0,17,1,594.0473079681396,594.0432548522949,806,1
63,control,12.0,17,1,594.120979309082,594.1181182861328,1131,1
64,control,13.0,17,1,393.97215843200684,393.9709663391113,1030,1
65,control,14.0,17,1,493.04699897766113,493.0379390716553,1214,1
66,control,15.0,17,1,592.1909809112549,592.1790599822998,886,1
67,control,16.0,17,1,494.66800689697266,494.6601390838623,1100,0
68,control,16.0,17,1,494.58789825439453,494.5840835571289,825,1
69,control,17.0,17,1,594.4960117340088,594.4888591766357,935,1
70,control,18.0,17,1,592.2751426696777,592.2720432281494,1148,1
71,control,19.0,17,1,495.94807624816895,495.9430694580078,1102,1
72,control,20.0,17,1,990.6752109527588,990.6721115112305,1485,1
73,control,21.0,17,1,493.4430122375488,493.4358596801758,1036,1
74,control,22.0,17,1,493.8812255859375,493.87288093566895,1124,1
75,control,23.0,17,1,493.59893798828125,493.5898780822754,1261,1
76,control,24.0,17,1,493.0851459503174,493.07990074157715,1471,1
77,control,25.0,17,1,594.3877696990967,594.3820476531982,1234,1
78,control,26.0,17,1,593.2972431182861,593.2931900024414,819,1
79,control,27.0,17,1,526.116132736206,526.1120796203613,1250,1
80,control,28.0,17,1,590.8160209655762,590.8138751983643,1316,1
81,control,29.0,17,1,491.3160800933838,491.30988121032715,1456,1
82,control,30.0,23,1,493.99399757385254,493.9889907836914,1318,1
83,control,5.0,17,1,197.94511795043945,593.3370590209961,1164,0
84,control,5.0,17,1,198.4241008758545,494.966983795166,1481,1
85,control,6.0,17,1,99.21932220458984,395.24316787719727,916,1
86,control,7.0,17,1,99.31802749633789,394.85788345336914,1351,1
87,control,8.0,17,1,98.69694709777832,427.11400985717773,1192,1
88,control,9.0,17,1,98.84500503540039,426.3582229614258,1460,1
89,control,10.0,17,1,98.39320182800293,493.61109733581543,852,1
90,control,11.0,17,1,493.64399909973145,493.6389923095703,802,1
91,control,12.0,17,1,393.9099311828613,393.9051628112793,982,1
92,control,13.0,17,1,393.5859203338623,393.582820892334,882,1
93,control,14.0,17,1,725.9111404418945,725.9011268615723,1490,1
94,control,15.0,17,1,426.73492431640625,426.7299175262451,1274,1
95,control,16.0,17,1,394.79684829711914,394.791841506958,1493,1
96,control,17.0,17,1,493.99399757385254,493.9899444580078,890,1
97,control,18.0,17,1,493.7169551849365,493.7131404876709,992,1
98,control,19.0,17,1,493.65997314453125,493.6540126800537,1475,1
99,control,20.0,17,1,494.9781894683838,494.9681758880615,1143,1
100,control,21.0,17,1,491.041898727417,491.0409450531006,1417,1
101,control,22.0,17,1,329.5400142669678,329.531192779541,1169,1
102,control,23.0,17,1,526.3729095458984,526.3698101043701,1427,1
103,control,24.0,17,1,524.5602130889893,524.554967880249,1289,1
104,control,25.0,17,1,1613.603115081787,1613.6000156402588,1060,1
105,control,26.0,17,1,592.9200649261475,592.9100513458252,800,1
106,control,27.0,17,1,493.5002326965332,493.4980869293213,1056,1
107,control,28.0,17,1,427.25396156311035,427.2482395172119,922,1
108,control,29.0,17,1,495.2988624572754,495.2969551086426,968,1
109,control,30.0,23,1,495.1670169830322,495.1627254486084,1002,1
110,control,5.0,14,1,98.71101379394531,394.4361209869385,922,1
111,control,6.0,14,1,99.07913208007812,494.7340488433838,1282,1
112,control,7.0,14,1,494.80295181274414,494.7938919067383,931,1
113,control,8.0,14,1,494.3079948425293,494.29798126220703,1406,1
114,control,9.0,14,1,593.8160419464111,593.8069820404053,1287,1
115,control,10.0,14,1,200.52099227905273,1090.7950401306152,970,1
116,control,11.0,14,1,496.33002281188965,496.3269233703613,1380,1
117,control,12.0,14,1,492.7511215209961,492.74682998657227,1195,1
118,control,13.0,14,1,492.3069477081299,492.30003356933594,871,1
119,control,14.0,14,1,490.97585678100586,490.97180366516113,1056,1
120,control,15.0,14,1,494.75693702697754,494.7500228881836,1165,1
121,control,16.0,14,1,593.080997467041,593.0769443511963,1234,1
122,control,17.0,14,1,593.2972431182861,593.2941436767578,1288,1
123,control,18.0,14,1,594.365119934082,594.3601131439209,1162,1
124,control,19.0,14,1,396.3818550109863,396.378755569458,1310,1
125,control,20.0,14,1,593.2950973510742,593.2919979095459,1028,1
126,control,21.0,14,1,393.39327812194824,393.3870792388916,1329,1
127,control,22.0,14,1,427.3378849029541,427.3359775543213,853,1
128,control,23.0,14,1,394.32215690612793,394.3190574645996,1076,1
129,control,24.0,14,1,394.7322368621826,394.7291374206543,1012,1
130,control,25.0,14,1,592.9639339447021,592.9558277130127,1481,1
131,control,26.0,14,1,894.6161270141602,894.6130275726318,1288,1
132,control,27.0,14,1,592.6127433776855,592.6108360290527,1156,1
133,control,28.0,14,0,790.424108505249,790.4200553894043,1173,1
134,control,29.0,14,1,990.5719757080078,990.5698299407959,1452,1
135,control,30.0,21,1,492.9330348968506,492.92802810668945,823,1
136,control,5.0,14,1,99.44677352905273,395.1549530029297,1390,1
137,control,6.0,14,1,99.1969108581543,494.3218231201172,1204,1
138,control,7.0,14,1,99.27201271057129,490.2780055999756,999,1
139,control,8.0,14,1,132.08389282226562,529.1788578033447,1035,1
140,control,9.0,14,1,525.7189273834229,525.7110595703125,1008,1
141,control,10.0,14,1,495.44405937194824,495.438814163208,988,1
142,control,11.0,14,1,493.38793754577637,493.380069732666,1135,1
143,control,12.0,14,1,400.8669853210449,990.6971454620361,1387,1
144,control,13.0,14,1,493.4117794036865,493.4101104736328,1485,1
145,control,14.0,14,1,494.8289394378662,494.8270320892334,1035,1
146,control,15.0,14,1,494.246244430542,494.23789978027344,1259,1
147,control,16.0,14,1,594.1948890686035,594.1898822784424,1124,1
148,control,17.0,14,1,395.2441215515137,395.24197578430176,1065,1
149,control,18.0,14,1,493.1299686431885,493.12806129455566,865,1
150,control,19.0,14,1,394.8230743408203,394.8171138763428,1040,1
151,control,20.0,14,1,496.39391899108887,496.39129638671875,1148,1
152,control,21.0,14,1,496.40798568725586,496.40393257141113,1168,1
153,control,22.0,14,1,394.87504959106445,394.8700428009033,1391,1
154,control,23.0,14,1,492.811918258667,492.80691146850586,1263,1
155,control,24.0,14,1,594.3849086761475,594.3820476531982,1256,1
156,control,25.0,14,1,598.5391139984131,598.5379219055176,871,1
157,control,26.0,14,1,493.5438632965088,493.53790283203125,1144,1
158,control,27.0,14,1,494.3842887878418,494.37618255615234,1196,1
159,control,28.0,17,1,491.8839931488037,491.87612533569336,1114,1
160,control,29.0,14,1,494.1670894622803,494.16494369506836,984,1
161,control,30.0,21,1,693.8729286193848,693.8698291778564,1125,1
162,control,5.0,11,1,197.645902633667,594.6829319000244,1025,1
163,control,6.0,11,1,99.43103790283203,494.71497535705566,1232,1
164,control,7.0,11,1,98.84095191955566,494.17805671691895,1141,1
165,control,8.0,11,1,890.1941776275635,890.1910781860352,1116,1
166,control,9.0,11,1,398.2112407684326,889.9021148681641,1450,1
167,control,10.0,11,1,198.34208488464355,593.0500030517578,1399,1
168,control,11.0,11,1,397.5939750671387,1686.049222946167,932,1
169,control,12.0,11,1,494.0142631530762,494.01021003723145,1376,1
170,control,13.0,11,1,1088.170051574707,1088.1669521331787,1053,1
171,control,14.0,11,1,592.6690101623535,592.6668643951416,1067,1
172,control,15.0,11,1,595.9351062774658,595.9310531616211,1150,1
173,control,16.0,11,1,397.22418785095215,397.22418785095215,1380,1
174,control,17.0,11,1,595.8151817321777,595.8142280578613,1002,1
175,control,18.0,11,1,893.233060836792,893.2309150695801,1332,1
176,control,19.0,11,1,493.83091926574707,493.82901191711426,1310,1
177,control,20.0,11,1,494.5378303527832,494.53210830688477,835,1
178,control,21.0,11,1,1417.4718856811523,1417.4656867980957,1306,0
179,control,21.0,11,1,526.2541770935059,526.252031326294,1050,1
180,control,22.0,11,1,593.9702987670898,593.9671993255615,1347,1
181,control,23.0,11,1,528.2330513000488,528.2301902770996,1481,1
182,control,24.0,11,1,492.3126697540283,492.311954498291,947,1
183,control,25.0,11,1,493.3888912200928,493.38698387145996,1376,1
184,control,26.0,11,1,494.3428039550781,494.3349361419678,1145,1
185,control,27.0,11,1,493.6392307281494,493.62921714782715,1141,1
186,control,28.0,17,1,494.0500259399414,494.0478801727295,1118,1
187,control,29.0,11,0,890.4948234558105,890.4900550842285,1415,1
188,control,30.0,20,1,593.7230587005615,593.7211513519287,1384,1
189,control,5.0,11,1,197.62778282165527,591.4008617401123,934,1
190,control,6.0,11,1,199.12314414978027,494.7371482849121,936,0
191,control,6.0,11,1,98.80399703979492,890.0008201599121,1366,1
192,control,7.0,11,1,395.4598903656006,395.45702934265137,1355,1
193,control,8.0,11,1,198.03786277770996,493.00289154052734,1315,1
194,control,9.0,11,1,198.99988174438477,493.297815322876,1117,1
195,control,10.0,11,1,591.8440818786621,591.8431282043457,1353,1
196,control,11.0,11,1,593.6391353607178,593.635082244873,946,1
197,control,12.0,11,1,394.59991455078125,394.5941925048828,1406,1
198,control,13.0,11,1,492.8760528564453,492.8719997406006,1199,1
199,control,14.0,11,1,628.028154373169,628.0238628387451,1063,1
200,control,15.0,11,1,493.57080459594727,493.5629367828369,1499,1
201,control,16.0,11,1,526.2801647186279,526.278018951416,1003,1
202,control,17.0,11,1,526.7539024353027,526.7488956451416,1002,1
203,control,18.0,11,1,395.92599868774414,395.9228992462158,837,1
204,control,19.0,11,1,495.0401782989502,495.0389862060547,1139,1
205,control,20.0,11,1,593.1010246276855,593.0991172790527,1191,1
206,control,21.0,11,1,593.7788486480713,593.7709808349609,832,1
207,control,22.0,11,1,492.51413345336914,492.5119876861572,1101,1
208,control,23.0,11,1,395.74289321899414,395.7381248474121,965,1
209,control,24.0,11,1,493.9918518066406,493.9897060394287,894,1
210,control,25.0,11,1,493.98303031921387,493.9720630645752,1477,1
211,control,26.0,11,1,624.9909400939941,624.9868869781494,1330,1
212,control,27.0,11,1,625.4482269287109,625.4451274871826,1214,1
213,control,28.0,15,1,525.9768962860107,525.9709358215332,1350,1
214,control,29.0,14,1,625.9548664093018,625.9517669677734,1374,1
215,control,30.0,20,1,627.4189949035645,627.418041229248,1185,1
216,control,5.0,8,1,98.42872619628906,1022.0367908477783,1468,1
217,control,6.0,8,1,99.07031059265137,822.1731185913086,834,1
218,control,7.0,8,1,395.9531784057617,592.7960872650146,1440,1
219,control,8.0,8,1,197.85785675048828,591.7127132415771,1331,1
220,control,9.0,8,1,101.3786792755127,498.13389778137207,1460,1
221,control,10.0,8,1,989.9489879608154,989.9461269378662,900,1
222,control,11.0,8,1,197.91316986083984,592.8101539611816,848,1
223,control,12.0,8,1,592.75221824646,592.7472114562988,1257,1
224,control,13.0,8,1,791.4566993713379,791.4538383483887,1052,1
225,control,14.0,8,1,396.12698554992676,396.12388610839844,1243,1
226,control,15.0,8,1,989.365816116333,989.3560409545898,1405,1
227,control,16.0,8,1,492.8619861602783,492.8550720214844,1208,1
228,control,17.0,8,1,494.28391456604004,494.2750930786133,1365,1
229,control,18.0,8,1,494.9822425842285,494.9760437011719,904,1
230,control,19.0,8,1,593.3401584625244,593.3260917663574,1013,1
231,control,20.0,8,1,493.9548969268799,493.9460754394531,872,1
232,control,21.0,8,1,494.3218231201172,494.31705474853516,1323,1
233,control,22.0,8,1,493.8020706176758,493.79992485046387,1405,1
234,control,23.0,8,1,988.792896270752,988.7878894805908,1393,1
235,control,24.0,8,1,593.1961536407471,593.1892395019531,1344,1
236,control,25.0,8,1,493.7598705291748,493.7577247619629,1351,1
237,control,26.0,8,1,592.6642417907715,592.6620960235596,1484,1
238,control,27.0,8,1,493.9000606536865,493.8962459564209,1081,1
239,control,28.0,15,1,492.9218292236328,492.9208755493164,912,1
240,control,29.0,14,1,593.994140625,593.986988067627,1226,1
241,control,30.0,18,1,692.9099559783936,692.903995513916,1118,1
242,control,5.0,8,1,98.87123107910156,527.9431343078613,850,1
243,control,6.0,8,1,199.27096366882324,593.9731597900391,1342,1
244,control,7.0,8,1,131.28304481506348,425.5402088165283,1303,1
245,control,8.0,8,1,526.3090133666992,526.3071060180664,893,1
246,control,9.0,8,1,1022.3710536956787,1022.367000579834,1373,1
247,control,10.0,8,1,625.683069229126,625.6809234619141,929,1
248,control,11.0,8,1,394.2410945892334,394.2389488220215,1375,1
249,control,12.0,8,1,1021.1031436920166,1021.0950374603271,956,1
250,control,13.0,8,1,493.8528537750244,493.847131729126,1123,1
251,control,14.0,8,1,493.6649799346924,493.649959564209,1026,1
252,control,15.0,8,1,526.9260406494141,526.9179344177246,927,1
253,control,16.0,8,1,493.45922470092773,493.4570789337158,813,1
254,control,17.0,8,1,592.2238826751709,592.2198295593262,1467,1
255,control,18.0,8,1,691.749095916748,691.7469501495361,1414,1
256,control,19.0,8,1,593.6770439147949,593.6720371246338,1203,1
257,control,20.0,8,1,493.53885650634766,493.5340881347656,849,1
258,control,21.0,8,1,593.0700302124023,593.0650234222412,1220,1
259,control,22.0,8,1,591.8478965759277,591.8469429016113,1438,1
260,control,23.0,8,1,692.939043045044,692.9349899291992,1431,1
261,control,24.0,8,1,595.3629016876221,595.3609943389893,866,1
262,control,25.0,8,1,592.620849609375,592.6129817962646,1154,1
263,control,26.0,8,1,625.0391006469727,625.0350475311279,925,1
264,control,27.0,8,1,726.7341613769531,726.7310619354248,1182,1
265,control,28.0,14,1,627.1219253540039,627.1171569824219,1040,1
266,control,29.0,12,0,791.2299633026123,791.2280559539795,951,1
267,control,30.0,18,1,691.8401718139648,691.8370723724365,982,1
268,control,5.0,5,1,98.74105453491211,988.983154296875,1032,1
269,control,6.0,5,1,99.49994087219238,495.27502059936523,1347,1
270,control,7.0,5,1,99.78127479553223,495.624303817749,839,1
271,control,8.0,5,1,889.5750045776367,889.5728588104248,1472,1
272,control,9.0,5,1,97.41902351379395,492.4342632293701,966,1
273,control,10.0,5,1,987.2820377349854,987.2770309448242,1296,1
274,control,11.0,5,1,594.3090915679932,594.3009853363037,861,1
275,control,12.0,5,1,394.1020965576172,394.1011428833008,1107,1
276,control,13.0,5,1,1022.3371982574463,1022.3333835601807,1076,1
277,control,14.0,5,1,723.8798141479492,723.8776683807373,1147,1
278,control,15.0,5,0,919.5599555969238,919.5578098297119,1487,1
279,control,16.0,5,1,921.5242862701416,921.5202331542969,1429,1
280,control,17.0,5,0,1516.1559581756592,1516.1528587341309,866,1
281,control,18.0,5,1,592.414140701294,592.4091339111328,1299,1
282,control,19.0,5,1,692.3367977142334,692.3277378082275,1423,1
283,control,20.0,5,1,691.5261745452881,691.5209293365479,926,1
284,control,21.0,5,0,889.7199630737305,889.7171020507812,1068,1
285,control,22.0,5,1,690.7289028167725,690.7267570495605,987,1
286,control,23.0,5,0,988.4688854217529,988.4641170501709,1204,1
287,control,24.0,5,0,1317.8901672363281,1317.885160446167,1074,1
288,control,25.0,5,0,889.7368907928467,889.7299766540527,909,1
289,control,26.0,5,0,693.1829452514648,693.1819915771484,915,1
290,control,27.0,5,0,691.648006439209,691.6427612304688,1123,1
291,control,28.0,14,1,494.157075881958,494.1549301147461,894,1
292,control,29.0,14,1,723.675012588501,723.6719131469727,1045,1
293,control,30.0,17,0,921.9920635223389,921.989917755127,1302,1
294,control,5.0,5,1,395.2598571777344,395.25794982910156,855,0
295,control,5.0,5,1,198.48132133483887,594.6030616760254,1106,1
296,control,6.0,5,1,100.08430480957031,494.5492744445801,898,1
297,control,7.0,5,1,198.18401336669922,592.2858715057373,900,1
298,control,8.0,5,1,98.8008975982666,493.56794357299805,1113,1
299,control,9.0,5,1,493.8240051269531,493.818998336792,1253,1
300,control,10.0,5,1,131.38484954833984,624.8998641967773,856,1
301,control,11.0,5,0,199.65410232543945,1022.9780673980713,1054,1
302,control,12.0,5,0,924.091100692749,924.0882396697998,810,1
303,control,13.0,5,1,522.4766731262207,522.4697589874268,1164,1
304,control,14.0,5,1,991.2049770355225,991.1999702453613,1136,1
305,control,15.0,8,1,593.0690765380859,593.0659770965576,1070,1
306,control,16.0,5,1,593.8742160797119,593.8723087310791,1500,1
307,control,17.0,8,0,887.5563144683838,887.5510692596436,1274,1
308,control,18.0,5,0,593.8150882720947,593.8131809234619,1266,1
309,control,19.0,5,1,593.8451290130615,593.8413143157959,843,1
310,control,20.0,5,1,793.4379577636719,793.4360504150391,1056,1
311,control,21.0,8,1,494.13585662841797,494.12989616394043,1360,1
312,control,22.0,5,1,525.8748531341553,525.8731842041016,869,1
313,control,23.0,8,1,592.0190811157227,592.0159816741943,883,1
314,control,24.0,8,1,856.3263416290283,856.3232421875,1473,1
315,control,25.0,8,0,1483.8709831237793,1483.8669300079346,1378,1
316,control,26.0,8,0,791.1338806152344,791.1319732666016,958,1
317,control,27.0,8,0,791.7270660400391,791.7251586914062,1317,1
318,control,28.0,12,1,593.1928157806396,593.1878089904785,1085,1
319,control,29.0,14,1,592.736005783081,592.7338600158691,1204,1
320,control,30.0,18,1,426.9449710845947,426.9428253173828,1033,1
321,control,5.0,2,0,99.80487823486328,1418.104887008667,873,1
322,control,6.0,2,1,197.98612594604492,1220.3369140625,966,1
323,control,7.0,2,0,198.57001304626465,1290.93599319458,1132,1
324,control,8.0,2,0,198.3931064605713,1092.0429229736328,1220,1
325,control,9.0,2,1,891.456127166748,891.4499282836914,978,1
326,control,10.0,2,0,696.854829788208,696.8519687652588,1120,1
327,control,11.0,8,1,593.7490463256836,593.7368869781494,1325,1
328,control,12.0,8,1,591.6688442230225,591.6657447814941,1113,1
329,control,13.0,2,0,691.2388801574707,691.2362575531006,1257,1
330,control,14.0,2,0,791.6672229766846,791.6584014892578,1113,1
331,control,15.0,8,1,592.3807621002197,592.371940612793,950,1
332,control,16.0,2,1,593.0109024047852,593.0039882659912,1056,1
333,control,17.0,11,1,592.5030708312988,592.4973487854004,923,1
334,control,18.0,8,1,591.594934463501,591.5849208831787,1126,1
335,control,19.0,2,0,591.7019844055176,591.6979312896729,977,1
336,control,20.0,2,1,824.904203414917,824.9022960662842,898,1
337,control,21.0,8,1,493.9610958099365,493.9541816711426,1161,1
338,control,22.0,2,1,691.727876663208,691.7228698730469,965,1
339,control,23.0,8,1,525.6679058074951,525.6659984588623,1114,1
340,control,24.0,8,1,593.3339595794678,593.332052230835,1098,1
341,control,25.0,11,1,492.72704124450684,492.7248954772949,866,1
342,control,26.0,11,1,593.5311317443848,593.5227870941162,986,1
343,control,27.0,11,1,792.8872108459473,792.8750514984131,1477,1
344,control,28.0,12,1,592.2162532806396,592.2081470489502,839,1
345,control,29.0,13,1,691.8835639953613,691.8818950653076,944,1
346,control,30.0,18,0,493.1919574737549,493.18981170654297,1342,1
347,control,5.0,5,1,196.46382331848145,492.65289306640625,1132,1
348,control,6.0,2,0,99.12514686584473,890.9561634063721,1127,1
349,control,7.0,5,1,197.74627685546875,791.2693023681641,1063,1
350,control,8.0,5,1,494.11678314208984,494.1129684448242,1115,1
351,control,9.0,2,0,724.6148586273193,724.6108055114746,1003,1
352,control,10.0,5,1,98.53100776672363,493.9851760864258,801,1
353,control,11.0,8,1,396.5620994567871,592.4060344696045,1347,1
354,control,12.0,8,1,593.6219692230225,593.6160087585449,932,1
355,control,13.0,5,1,493.81399154663086,493.81017684936523,1055,1
356,control,14.0,5,1,691.3290023803711,691.3242340087891,1015,1
357,control,15.0,6,1,690.9670829772949,690.9639835357666,1015,1
358,control,16.0,2,1,691.5647983551025,691.5609836578369,1279,1
359,control,17.0,11,1,493.2239055633545,493.2138919830322,1312,1
360,control,18.0,8,1,792.2418117523193,792.229175567627,1328,1
361,control,19.0,5,1,494.3690299987793,494.36330795288086,1129,1
362,control,20.0,2,0,791.80908203125,791.8031215667725,1113,1
363,control,21.0,6,1,790.3861999511719,790.3780937194824,1339,1
364,control,22.0,2,0,792.0181751251221,792.0160293579102,1216,1
365,control,23.0,6,1,889.7979259490967,889.794111251831,1327,1
366,control,24.0,6,0,724.329948425293,724.3208885192871,1416,1
367,control,25.0,11,1,592.700719833374,592.6980972290039,824,1
368,control,26.0,11,1,492.5727844238281,492.56277084350586,836,1
369,control,27.0,11,1,494.30394172668457,494.29917335510254,1395,1
370,control,28.0,11,1,492.9478168487549,492.94400215148926,1432,1
371,control,29.0,13,1,592.4570560455322,592.4539566040039,1084,1
372,control,30.0,19,0,493.1159019470215,493.11375617980957,1149,1
373,control,5.0,5,1,195.84393501281738,525.8598327636719,1026,1
374,control,6.0,5,1,198.23479652404785,593.7700271606445,931,1
375,control,7.0,5,1,592.4158096313477,592.4108028411865,860,1
376,control,8.0,5,1,493.6938285827637,493.69215965270996,1415,1
377,control,9.0,5,1,592.0939445495605,592.0870304107666,821,1
378,control,10.0,5,1,492.8419589996338,492.83576011657715,871,1
379,control,11.0,6,1,494.4639205932617,494.45295333862305,893,1
380,control,12.0,6,1,592.6048755645752,592.5989151000977,1479,1
381,control,13.0,5,0,823.9719867706299,823.9660263061523,832,1
382,control,14.0,5,1,493.06297302246094,493.060827255249,1311,1
383,control,15.0,6,1,625.4420280456543,625.4329681396484,984,1
384,control,16.0,1,1,526.055097579956,526.0529518127441,1135,1
385,control,17.0,9,1,396.08001708984375,396.07691764831543,1293,1
386,control,18.0,6,1,791.5389537811279,791.5370464324951,1459,1
387,control,19.0,5,1,791.3289070129395,791.3219928741455,1234,1
388,control,20.0,5,1,591.5541648864746,591.5491580963135,853,1
389,control,21.0,6,1,594.6099758148193,594.6040153503418,1207,1
390,control,22.0,5,1,593.8019752502441,593.7991142272949,1073,1
391,control,23.0,6,1,493.63088607788086,493.6239719390869,1131,1
392,control,24.0,8,1,493.23320388793945,493.2260513305664,938,1
393,control,25.0,9,1,692.9070949554443,692.9049491882324,1146,1
394,control,26.0,9,1,625.0917911529541,625.0879764556885,904,1
395,control,27.0,9,1,922.0070838928223,921.9961166381836,1048,1
396,control,28.0,11,1,624.1328716278076,624.1288185119629,1284,1
397,control,29.0,12,1,494.18187141418457,494.18020248413086,1406,1
398,control,30.0,20,1,492.2659397125244,492.2640323638916,983,1
1,quadbright,5.0,20,1,98.75106811523438,7129.968881607056,1045,1
2,quadbright,6.0,20,1,98.59204292297363,395.33519744873047,899,1
3,quadbright,7.0,20,1,494.2750930786133,494.27199363708496,801,1
4,quadbright,8.0,20,1,592.50807762146,592.5040245056152,916,0
5,quadbright,8.0,20,1,98.02699089050293,426.5451431274414,1354,0
6,quadbright,8.0,20,1,199.45669174194336,625.9357929229736,1172,1
7,quadbright,9.0,20,1,593.177080154419,593.1661128997803,973,1
8,quadbright,10.0,20,1,395.54905891418457,395.54524421691895,1477,1
9,quadbright,11.0,20,1,528.8031101226807,528.7957191467285,1050,1
10,quadbright,12.0,20,1,494.07100677490234,494.063138961792,1297,1
11,quadbright,13.0,20,1,593.195915222168,593.1921005249023,1411,1
12,quadbright,14.0,20,1,394.1309452056885,394.12498474121094,1294,1
13,quadbright,15.0,20,1,492.51604080200195,492.51294136047363,1464,1
14,quadbright,16.0,20,1,394.72222328186035,394.7110176086426,822,1
15,quadbright,17.0,20,1,593.6071872711182,593.5940742492676,1206,1
16,quadbright,18.0,20,1,625.216007232666,625.2040863037109,1282,1
17,quadbright,19.0,20,1,495.75090408325195,495.74780464172363,930,1
18,quadbright,20.0,20,1,395.183801651001,395.183801651001,1451,1
19,quadbright,21.0,20,1,526.4179706573486,526.4127254486084,1253,1
20,quadbright,22.0,20,1,394.0160274505615,394.0119743347168,1032,1
21,quadbright,23.0,20,1,397.10402488708496,397.09997177124023,940,1
22,quadbright,24.0,20,1,494.87900733947754,494.8768615722656,824,0
23,quadbright,24.0,20,1,891.8571472167969,891.8509483337402,1186,1
24,quadbright,25.0,20,1,298.2017993927002,1187.4668598175049,1459,0
25,quadbright,25.0,20,1,890.0430202484131,890.0399208068848,1121,1
26,quadbright,26.0,20,1,1384.8459720611572,1384.8438262939453,1165,1
27,quadbright,27.0,20,1,790.2209758758545,790.2178764343262,984,1
28,quadbright,28.0,20,0,593.6939716339111,593.6870574951172,1173,1
29,quadbright,29.0,20,1,586.6212844848633,586.6191387176514,1181,1
30,quadbright,30.0,20,1,1681.0519695281982,1681.0500621795654,1287,1
31,quadbright,5.0,20,1,197.87192344665527,590.8651351928711,922,1
32,quadbright,6.0,20,1,98.68812561035156,394.2890167236328,1051,1
33,quadbright,7.0,20,1,98.33073616027832,494.57573890686035,863,1
34,quadbright,8.0,20,1,526.604175567627,526.5941619873047,803,1
35,quadbright,9.0,20,1,592.2319889068604,592.2260284423828,861,1
36,quadbright,10.0,20,1,99.12300109863281,493.8340187072754,843,1
37,quadbright,11.0,20,1,593.6400890350342,593.6331748962402,1176,1
38,quadbright,12.0,20,1,198.69613647460938,594.2790508270264,915,1
39,quadbright,13.0,20,1,625.4541873931885,625.4491806030273,1155,1
40,quadbright,14.0,20,0,132.307767868042,530.8427810668945,1104,1
41,quadbright,15.0,20,1,395.54476737976074,395.5421447753906,991,1
42,quadbright,16.0,20,1,492.1081066131592,492.10596084594727,1180,1
43,quadbright,17.0,20,1,495.1939582824707,495.18609046936035,1248,1
44,quadbright,18.0,20,1,525.5417823791504,525.5348682403564,821,1
45,quadbright,19.0,20,1,593.4219360351562,593.4150218963623,938,1
46,quadbright,20.0,20,1,493.60013008117676,493.5910701751709,1321,1
47,quadbright,21.0,20,1,493.1671619415283,493.1650161743164,1470,1
48,quadbright,22.0,20,1,526.8700122833252,526.8640518188477,1182,1
49,quadbright,23.0,20,1,394.58465576171875,394.58298683166504,859,1
50,quadbright,24.0,20,1,394.70624923706055,394.70410346984863,1105,1
51,quadbright,25.0,20,1,493.8220977783203,493.8201904296875,1195,1
52,quadbright,26.0,20,1,593.7790870666504,593.7721729278564,940,1
53,quadbright,27.0,20,1,394.6847915649414,394.6819305419922,1120,1
54,quadbright,28.0,23,1,692.3849582672119,692.3849582672119,1073,1
55,quadbright,29.0,20,1,494.6131706237793,494.60482597351074,1023,1
56,quadbright,30.0,20,1,592.4279689788818,592.4198627471924,1178,1
57,quadbright,5.0,17,1,199.26810264587402,593.6276912689209,987,1
58,quadbright,6.0,17,1,198.54497909545898,494.17614936828613,871,1
59,quadbright,7.0,17,1,99.19595718383789,394.5319652557373,1218,1
60,quadbright,8.0,17,1,197.04413414001465,1020.8511352539062,867,1
61,quadbright,9.0,17,1,396.36921882629395,396.3630199432373,1049,1
62,quadbright,10.0,17,1,593.7309265136719,593.7252044677734,1278,1
63,quadbright,11.0,17,1,494.22502517700195,494.2169189453125,1024,1
64,quadbright,12.0,17,1,890.7270431518555,890.7239437103271,827,1
65,quadbright,13.0,17,1,592.8270816802979,592.8220748901367,1320,1
66,quadbright,14.0,23,1,592.036247253418,592.034101486206,1197,1
67,quadbright,15.0,17,1,593.1239128112793,593.1220054626465,1311,1
68,quadbright,16.0,17,1,1087.965965270996,1087.9638195037842,1447,1
69,quadbright,17.0,17,1,494.509220123291,494.5070743560791,1492,1
70,quadbright,18.0,17,1,526.6640186309814,526.6618728637695,920,1
71,quadbright,19.0,17,1,625.014066696167,625.007152557373,1205,1
72,quadbright,20.0,17,1,395.4050540924072,395.4029083251953,1108,1
73,quadbright,21.0,17,1,494.7190284729004,494.71306800842285,1207,1
74,quadbright,22.0,17,1,593.0633544921875,593.0593013763428,1194,1
75,quadbright,23.0,17,1,493.4530258178711,493.4508800506592,1082,1
76,quadbright,24.0,17,1,592.8168296813965,592.8127765655518,1199,1
77,quadbright,25.0,17,1,494.04096603393555,494.03905868530273,985,1
78,quadbright,26.0,17,1,493.4957027435303,493.49403381347656,1330,1
79,quadbright,27.0,17,1,592.228889465332,592.2281742095947,1471,1
80,quadbright,28.0,23,1,890.8350467681885,890.8240795135498,812,1
81,quadbright,29.0,17,0,1287.2247695922852,1287.2188091278076,878,1
82,quadbright,30.0,17,1,593.0421352386475,593.0380821228027,1370,1
83,quadbright,5.0,17,1,100.49009323120117,494.657039642334,1230,1
84,quadbright,6.0,17,1,98.4029769897461,493.5019016265869,1395,1
85,quadbright,7.0,17,1,99.17974472045898,495.29194831848145,1133,1
86,quadbright,8.0,17,1,494.5089817047119,494.50206756591797,977,1
87,quadbright,9.0,17,1,493.5157299041748,493.5109615325928,1150,1
88,quadbright,10.0,17,1,593.5847759246826,593.5778617858887,1238,1
89,quadbright,11.0,17,1,493.4990406036377,493.49284172058105,1480,1
90,quadbright,12.0,17,1,593.2769775390625,593.2731628417969,914,1
91,quadbright,13.0,17,1,195.17183303833008,493.46375465393066,924,1
92,quadbright,14.0,23,1,296.2050437927246,591.6752815246582,935,1
93,quadbright,15.0,17,1,493.5429096221924,493.5412406921387,1290,0
94,quadbright,15.0,17,1,692.2109127044678,692.2039985656738,1178,1
95,quadbright,16.0,17,1,492.55871772766113,492.5558567047119,1491,1
96,quadbright,17.0,17,1,493.55101585388184,493.5462474822998,1062,1
97,quadbright,18.0,17,1,495.3961372375488,495.3930377960205,1022,1
98,quadbright,19.0,17,1,526.7481803894043,526.7460346221924,860,1
99,quadbright,20.0,17,1,491.5950298309326,491.5897846221924,885,1
100,quadbright,21.0,17,1,593.0721759796143,593.0652618408203,1325,1
101,quadbright,22.0,17,1,393.11790466308594,393.1159973144531,1097,1
102,quadbright,23.0,17,1,492.89584159851074,492.891788482666,1486,1
103,quadbright,24.0,17,1,592.6520824432373,592.6470756530762,1148,1
104,quadbright,25.0,17,1,692.1091079711914,692.1069622039795,1328,1
105,quadbright,26.0,17,1,889.843225479126,889.8344039916992,1308,1
106,quadbright,27.0,17,1,629.9879550933838,629.9850940704346,1407,1
107,quadbright,28.0,20,1,491.0008907318115,490.9989833831787,1106,1
108,quadbright,29.0,20,0,891.3767337799072,891.373872756958,1267,1
109,quadbright,30.0,17,1,593.4808254241943,593.477725982666,1161,1
110,quadbright,5.0,14,1,98.09708595275879,890.2761936187744,860,1
111,quadbright,6.0,14,1,198.14395904541016,594.6509838104248,870,1
112,quadbright,7.0,14,1,495.7752227783203,495.7711696624756,1130,1
113,quadbright,8.0,14,1,493.59774589538574,493.5917854309082,1379,1
114,quadbright,9.0,14,1,492.4049377441406,492.4018383026123,819,1
115,quadbright,10.0,14,1,691.6060447692871,691.5991306304932,1115,1
116,quadbright,11.0,14,1,197.340726852417,592.4117565155029,846,1
117,quadbright,12.0,14,1,494.9209690093994,494.9169158935547,1007,1
118,quadbright,13.0,14,1,594.6109294891357,594.6087837219238,1189,1
119,quadbright,14.0,21,1,493.70718002319336,493.70503425598145,980,1
120,quadbright,15.0,14,1,494.4918155670166,494.4889545440674,824,1
121,quadbright,16.0,14,1,394.73605155944824,394.7339057922363,1224,1
122,quadbright,17.0,14,1,623.115062713623,623.1112480163574,860,1
123,quadbright,18.0,14,1,494.9178695678711,494.91405487060547,945,1
124,quadbright,19.0,14,1,493.9577579498291,493.9539432525635,1434,1
125,quadbright,20.0,14,1,493.8371181488037,493.82925033569336,1433,1
126,quadbright,21.0,14,1,693.9771175384521,693.9730644226074,918,1
127,quadbright,22.0,14,1,591.6738510131836,591.6647911071777,1480,1
128,quadbright,23.0,14,1,495.5141544342041,495.50890922546387,1346,1
129,quadbright,24.0,14,1,497.3158836364746,497.3130226135254,846,1
130,quadbright,25.0,14,1,494.31800842285156,494.31705474853516,1344,1
131,quadbright,26.0,14,1,692.9290294647217,692.9211616516113,1259,1
132,quadbright,27.0,14,1,790.8530235290527,790.8508777618408,1156,1
133,quadbright,28.0,20,1,493.6347007751465,493.62993240356445,1399,1
134,quadbright,29.0,23,1,725.2769470214844,725.2750396728516,834,1
135,quadbright,30.0,14,0,889.6417617797852,889.639139175415,1290,1
136,quadbright,5.0,14,1,99.23195838928223,494.81987953186035,1044,1
137,quadbright,6.0,14,1,198.28104972839355,593.1360721588135,870,1
138,quadbright,7.0,14,1,130.20086288452148,429.7468662261963,950,1
139,quadbright,8.0,14,1,131.12998008728027,527.99391746521,1482,1
140,quadbright,9.0,14,1,1022.2921371459961,1022.2840309143066,926,1
141,quadbright,10.0,14,1,198.70519638061523,494.2481517791748,1194,1
142,quadbright,11.0,14,1,394.3159580230713,394.2739963531494,1037,1
143,quadbright,12.0,14,1,425.9212017059326,425.9181022644043,914,1
144,quadbright,13.0,14,1,393.9383029937744,393.9342498779297,1089,1
145,quadbright,14.0,21,1,493.92199516296387,493.9157962799072,1253,1
146,quadbright,15.0,14,1,592.642068862915,592.6389694213867,1096,1
147,quadbright,16.0,14,1,494.365930557251,494.35901641845703,1107,1
148,quadbright,17.0,14,1,497.6232051849365,497.6201057434082,1371,1
149,quadbright,18.0,14,1,396.46077156066895,396.46005630493164,1386,1
150,quadbright,19.0,14,1,492.8410053253174,492.83409118652344,1484,1
151,quadbright,20.0,14,1,496.5240955352783,496.51408195495605,1027,1
152,quadbright,21.0,14,1,893.7268257141113,893.7180042266846,886,1
153,quadbright,22.0,14,1,626.8930435180664,626.8901824951172,1272,1
154,quadbright,23.0,14,1,1024.2478847503662,1024.2440700531006,1112,1
155,quadbright,24.0,14,1,597.614049911499,597.6109504699707,1178,1
156,quadbright,25.0,14,0,593.3272838592529,593.3210849761963,1460,1
157,quadbright,26.0,14,1,791.107177734375,791.1059856414795,901,1
158,quadbright,27.0,14,0,887.3248100280762,887.3229026794434,833,1
159,quadbright,28.0,17,1,692.2879219055176,692.2848224639893,1120,1
160,quadbright,29.0,23,1,790.5268669128418,790.5242443084717,1132,1
161,quadbright,30.0,17,1,494.0059185028076,494.0011501312256,1338,1
162,quadbright,5.0,11,1,99.25103187561035,993.1721687316895,927,1
163,quadbright,6.0,11,1,98.83594512939453,427.02198028564453,1471,1
164,quadbright,7.0,11,1,593.9662456512451,593.9640998840332,1111,1
165,quadbright,8.0,11,1,593.0840969085693,593.0831432342529,1168,1
166,quadbright,9.0,11,0,199.55825805664062,1318.964958190918,1158,1
167,quadbright,10.0,11,1,593.9369201660156,593.9350128173828,1471,1
168,quadbright,11.0,11,1,493.541955947876,493.53599548339844,1062,1
169,quadbright,12.0,11,1,594.3827629089355,594.3810939788818,1125,1
170,quadbright,13.0,11,1,495.8462715148926,495.84412574768066,842,1
171,quadbright,14.0,20,1,593.9180850982666,593.9121246337891,1246,1
172,quadbright,15.0,11,1,694.6220397949219,694.6210861206055,1058,1
173,quadbright,16.0,11,1,1019.0830230712891,1019.0808773040771,863,1
174,quadbright,17.0,11,1,496.10090255737305,496.09899520874023,1306,1
175,quadbright,18.0,11,0,889.0628814697266,889.0571594238281,1228,1
176,quadbright,19.0,11,1,595.0279235839844,595.0260162353516,1467,1
177,quadbright,20.0,11,1,723.9818572998047,723.9739894866943,908,1
178,quadbright,21.0,11,1,625.7510185241699,625.7491111755371,986,1
179,quadbright,22.0,11,1,622.6308345794678,622.628927230835,1464,1
180,quadbright,23.0,11,1,624.7410774230957,624.7379779815674,1484,1
181,quadbright,24.0,11,1,626.039981842041,626.0380744934082,1463,1
182,quadbright,25.0,17,1,528.0411243438721,528.0380249023438,1376,1
183,quadbright,26.0,11,1,525.9499549865723,525.9420871734619,1197,1
184,quadbright,27.0,17,1,593.1828022003174,593.1808948516846,860,0
185,quadbright,27.0,17,1,592.980146408081,592.9732322692871,1157,1
186,quadbright,28.0,17,1,1713.7820720672607,1713.7799263000488,1375,1
187,quadbright,29.0,21,1,500.3190040588379,500.31590461730957,1500,1
188,quadbright,30.0,17,1,691.5106773376465,691.5068626403809,1014,1
189,quadbright,5.0,11,1,197.94297218322754,592.6470756530762,1493,1
190,quadbright,6.0,11,1,197.43800163269043,592.6899909973145,978,1
191,quadbright,7.0,11,1,98.99473190307617,494.7497844696045,967,1
192,quadbright,8.0,11,1,99.47419166564941,988.7611865997314,873,1
193,quadbright,9.0,14,1,99.99394416809082,593.7278270721436,843,1
194,quadbright,10.0,11,1,493.0908679962158,493.0870532989502,911,1
195,quadbright,11.0,11,1,493.7620162963867,493.7608242034912,1493,1
196,quadbright,12.0,11,1,493.8797950744629,493.87407302856445,1281,1
197,quadbright,13.0,11,1,494.6610927581787,494.65394020080566,1271,1
198,quadbright,14.0,20,1,393.4359550476074,393.4359550476074,1160,1
199,quadbright,15.0,11,1,593.1780338287354,593.1751728057861,1116,1
200,quadbright,16.0,11,1,493.94989013671875,493.94702911376953,1070,1
201,quadbright,17.0,11,1,493.5460090637207,493.5429096221924,1140,1
202,quadbright,18.0,14,1,495.94807624816895,495.9440231323242,1451,1
203,quadbright,19.0,11,1,692.1670436859131,692.1629905700684,1262,1
204,quadbright,20.0,11,1,594.1817760467529,594.1698551177979,1305,1
205,quadbright,21.0,11,1,494.00806427001953,494.0061569213867,1233,1
206,quadbright,22.0,11,1,724.1320610046387,724.1311073303223,1045,1
207,quadbright,23.0,11,1,527.3587703704834,527.3518562316895,1332,1
208,quadbright,24.0,11,1,592.6680564880371,592.6659107208252,1036,1
209,quadbright,25.0,17,1,492.53392219543457,492.53010749816895,860,1
210,quadbright,26.0,11,1,692.0950412750244,692.0928955078125,1042,1
211,quadbright,27.0,17,1,592.3619270324707,592.3538208007812,1206,1
212,quadbright,28.0,14,1,493.1938648223877,493.1788444519043,898,1
213,quadbright,29.0,21,1,594.1083431243896,594.1009521484375,1068,1
214,quadbright,30.0,15,1,692.4760341644287,692.4700736999512,1224,1
215,quadbright,5.0,8,1,230.6499481201172,625.2269744873047,1218,1
216,quadbright,6.0,8,1,198.25983047485352,592.8161144256592,1072,1
217,quadbright,7.0,8,1,526.7491340637207,526.7460346221924,1179,1
218,quadbright,8.0,8,1,100.33392906188965,427.73890495300293,1353,1
219,quadbright,9.0,14,1,426.5401363372803,426.53799057006836,1409,1
220,quadbright,10.0,8,1,626.0161399841309,626.0101795196533,1366,1
221,quadbright,11.0,8,1,494.9922561645508,494.99011039733887,1390,1
222,quadbright,12.0,8,1,494.1520690917969,494.14682388305664,951,1
223,quadbright,13.0,8,1,1088.8299942016602,1088.8230800628662,1342,1
224,quadbright,14.0,18,1,494.2910671234131,494.2889213562012,1286,1
225,quadbright,15.0,8,1,724.898099899292,724.8940467834473,1319,1
226,quadbright,16.0,8,1,722.7399349212646,722.7370738983154,945,1
227,quadbright,17.0,8,1,725.0332832336426,725.0313758850098,1433,1
228,quadbright,18.0,14,1,692.1508312225342,692.1408176422119,1443,1
229,quadbright,19.0,8,1,1384.7010135650635,1384.6981525421143,995,1
230,quadbright,20.0,8,1,594.3610668182373,594.3570137023926,1123,1
231,quadbright,21.0,8,0,493.24798583984375,493.243932723999,1190,1
232,quadbright,22.0,8,1,692.3909187316895,692.3818588256836,1066,1
233,quadbright,23.0,8,1,822.3021030426025,822.3001956939697,963,1
234,quadbright,24.0,8,0,987.0431423187256,987.0409965515137,977,1
235,quadbright,25.0,15,1,592.9579734802246,592.9501056671143,1152,1
236,quadbright,26.0,8,0,1184.1530799865723,1184.1490268707275,807,1
237,quadbright,27.0,15,1,596.5011119842529,596.4891910552979,1254,1
238,quadbright,28.0,14,1,1385.5888843536377,1385.582685470581,1308,1
239,quadbright,29.0,20,1,693.2480335235596,693.244218826294,1090,1
240,quadbright,30.0,15,0,1482.7349185943604,1482.7330112457275,1419,1
241,quadbright,5.0,8,1,198.51112365722656,593.1899547576904,995,1
242,quadbright,6.0,8,1,199.45096969604492,598.0029106140137,1283,1
243,quadbright,7.0,8,1,988.8100624084473,988.8029098510742,969,1
244,quadbright,8.0,8,1,494.2619800567627,494.25792694091797,1230,1
245,quadbright,9.0,12,1,494.34590339660645,494.3408966064453,1219,1
246,quadbright,10.0,8,1,493.87288093566895,493.87121200561523,876,1
247,quadbright,11.0,8,1,591.9480323791504,591.9439792633057,1050,1
248,quadbright,12.0,8,1,890.5801773071289,890.5770778656006,933,1
249,quadbright,13.0,8,1,790.8711433410645,790.8673286437988,834,1
250,quadbright,14.0,18,1,593.5909748077393,593.5878753662109,1330,1
251,quadbright,15.0,8,1,1120.0289726257324,1120.025873184204,1250,1
252,quadbright,16.0,8,1,1020.6389427185059,1020.6341743469238,893,1
253,quadbright,17.0,8,0,789.8869514465332,789.8809909820557,1451,1
254,quadbright,18.0,12,1,691.2548542022705,691.2529468536377,1492,1
255,quadbright,19.0,8,1,591.6550159454346,591.649055480957,1198,1
256,quadbright,20.0,8,1,791.6240692138672,791.6171550750732,1364,1
257,quadbright,21.0,11,1,891.1099433898926,891.1077976226807,935,1
258,quadbright,22.0,8,1,890.1169300079346,890.1121616363525,894,1
259,quadbright,23.0,8,1,724.647045135498,724.6432304382324,1464,1
260,quadbright,24.0,11,1,1417.2818660736084,1417.2799587249756,882,1
261,quadbright,25.0,15,1,1383.5761547088623,1383.573055267334,1345,1
262,quadbright,26.0,11,1,493.5109615325928,493.51000785827637,1003,1
263,quadbright,27.0,15,0,1120.1798915863037,1120.173692703247,1012,1
264,quadbright,28.0,11,0,893.9540386199951,893.9521312713623,886,1
265,quadbright,29.0,20,1,1088.1271362304688,1088.1261825561523,1120,1
266,quadbright,30.0,17,1,625.7898807525635,625.7879734039307,943,1
267,quadbright,5.0,5,1,98.21915626525879,624.6871948242188,1092,1
268,quadbright,6.0,5,1,100.76117515563965,592.3781394958496,1456,1
269,quadbright,7.0,5,1,98.28400611877441,494.20619010925293,909,1
270,quadbright,8.0,5,1,99.34210777282715,890.0759220123291,1069,1
271,quadbright,9.0,12,1,97.97406196594238,493.78514289855957,1057,1
272,quadbright,10.0,5,1,692.2030448913574,692.1968460083008,843,1
273,quadbright,11.0,5,1,1021.934986114502,1021.9321250915527,1400,1
274,quadbright,12.0,5,1,692.0058727264404,692.0011043548584,1311,1
275,quadbright,13.0,5,1,890.6641006469727,890.6631469726562,1329,1
276,quadbright,14.0,17,1,792.0136451721191,791.9998168945312,870,1
277,quadbright,15.0,5,1,201.30300521850586,893.3119773864746,889,1
278,quadbright,16.0,5,1,694.0810680389404,694.0710544586182,1230,1
279,quadbright,17.0,11,0,892.3568725585938,892.3547267913818,891,1
280,quadbright,18.0,12,1,1418.546199798584,1418.5371398925781,1479,1
281,quadbright,19.0,5,0,692.6901340484619,692.6872730255127,964,1
282,quadbright,20.0,5,1,690.5279159545898,690.5231475830078,1115,1
283,quadbright,21.0,11,1,1087.2249603271484,1087.218999862671,1244,1
284,quadbright,22.0,5,0,1416.2590503692627,1416.2530899047852,827,1
285,quadbright,23.0,5,1,691.5881633758545,691.5860176086426,1215,1
286,quadbright,24.0,11,1,625.0600814819336,625.0550746917725,1351,1
287,quadbright,25.0,14,1,495.1169490814209,495.1143264770508,998,1
288,quadbright,26.0,11,1,890.4292583465576,890.423059463501,803,0
289,quadbright,26.0,11,1,823.4760761260986,823.4729766845703,1485,1
290,quadbright,27.0,17,1,692.4929618835449,692.490816116333,1240,1
291,quadbright,28.0,14,1,495.2549934387207,495.24688720703125,1100,1
292,quadbright,29.0,18,1,692.4159526824951,692.4018859863281,1432,1
293,quadbright,30.0,17,1,560.4860782623291,560.481071472168,1019,1
294,quadbright,5.0,5,1,101.52602195739746,692.990779876709,905,1
295,quadbright,6.0,5,1,198.55904579162598,593.1639671325684,1022,1
296,quadbright,7.0,5,1,99.96891021728516,495.4099655151367,1424,1
297,quadbright,8.0,5,1,98.7100601196289,889.6009922027588,1107,1
298,quadbright,9.0,11,1,99.97224807739258,593.0533409118652,1454,1
299,quadbright,10.0,5,1,688.0760192871094,688.0748271942139,993,1
300,quadbright,11.0,5,1,592.7736759185791,592.7689075469971,1178,1
301,quadbright,12.0,5,0,688.5659694671631,688.5638236999512,1109,1
302,quadbright,13.0,5,0,593.5790538787842,593.5769081115723,1168,0
303,quadbright,13.0,5,1,790.5652523040771,790.5590534210205,1146,1
304,quadbright,14.0,17,1,426.1360168457031,426.1338710784912,1094,1
305,quadbright,15.0,5,1,199.28812980651855,691.9851303100586,1225,1
306,quadbright,16.0,5,0,823.004961013794,823.002815246582,981,1
307,quadbright,17.0,14,1,594.3729877471924,594.3689346313477,802,1
308,quadbright,18.0,11,1,395.74289321899414,395.7388401031494,1107,1
309,quadbright,19.0,8,1,691.9751167297363,691.9641494750977,1053,1
310,quadbright,20.0,5,1,691.6451454162598,691.6439533233643,1314,1
311,quadbright,21.0,9,1,692.3110485076904,692.3038959503174,1416,1
312,quadbright,22.0,8,0,890.0349140167236,890.0279998779297,1352,1
313,quadbright,23.0,5,1,988.7769222259521,988.7669086456299,1100,1
314,quadbright,24.0,9,1,588.5963439941406,588.5941982269287,839,1
315,quadbright,25.0,14,1,692.0559406280518,692.0509338378906,1476,1
316,quadbright,26.0,9,1,789.435863494873,789.4339561462402,1247,1
317,quadbright,27.0,17,1,525.4189968109131,525.407075881958,952,1
318,quadbright,28.0,14,0,1022.8300094604492,1022.8221416473389,1247,1
319,quadbright,29.0,18,1,591.850996017456,591.8490886688232,937,1
320,quadbright,30.0,16,1,493.4089183807373,493.40105056762695,1015,1
321,quadbright,5.0,2,1,99.75290298461914,791.2149429321289,1147,1
322,quadbright,6.0,2,0,98.81591796875,890.5510902404785,1178,1
323,quadbright,7.0,2,0,99.97296333312988,593.4607982635498,1499,1
324,quadbright,8.0,2,0,197.49093055725098,592.8080081939697,1290,1
325,quadbright,9.0,11,1,98.3741283416748,394.2849636077881,914,1
326,quadbright,10.0,2,1,889.4791603088379,889.4739151000977,1315,1
327,quadbright,11.0,2,0,789.3450260162354,789.3428802490234,1010,1
328,quadbright,12.0,8,1,693.5200691223145,693.5038566589355,809,1
329,quadbright,13.0,2,1,691.9653415679932,691.9600963592529,1323,1
330,quadbright,14.0,15,1,526.6950130462646,526.6890525817871,1499,1
331,quadbright,15.0,2,0,823.7829208374023,823.7819671630859,1214,1
332,quadbright,16.0,8,1,526.8421173095703,526.839017868042,1331,1
333,quadbright,17.0,14,1,1021.1441516876221,1021.1372375488281,1134,1
334,quadbright,18.0,11,1,593.1029319763184,593.0960178375244,949,1
335,quadbright,19.0,8,1,624.5641708374023,624.5622634887695,1275,1
336,quadbright,20.0,2,0,1187.1490478515625,1187.1449947357178,822,0
337,quadbright,20.0,2,0,692.3279762268066,692.3201084136963,836,1
338,quadbright,21.0,9,1,592.6938056945801,592.6909446716309,1278,1
339,quadbright,22.0,11,1,492.6719665527344,492.66815185546875,1268,1
340,quadbright,23.0,2,1,590.8117294311523,590.803861618042,1034,1
341,quadbright,24.0,9,1,590.8749103546143,590.8718109130859,867,1
342,quadbright,25.0,12,1,791.4619445800781,791.4540767669678,1332,1
343,quadbright,26.0,9,1,890.5892372131348,890.5820846557617,1220,1
344,quadbright,27.0,16,1,625.3619194030762,625.359058380127,940,1
345,quadbright,28.0,15,1,494.0919876098633,494.0817356109619,1351,1
346,quadbright,29.0,17,0,725.1088619232178,725.1040935516357,830,1
347,quadbright,30.0,16,0,526.3960361480713,526.386022567749,1423,1
348,quadbright,5.0,2,0,229.5849323272705,1220.080852508545,1139,1
349,quadbright,6.0,5,1,98.80805015563965,889.782190322876,987,1
350,quadbright,7.0,5,1,99.44820404052734,494.8611259460449,1206,1
351,quadbright,8.0,5,1,692.2218799591064,692.2190189361572,981,1
352,quadbright,9.0,9,1,626.6381740570068,626.6360282897949,953,1
353,quadbright,10.0,2,1,1417.720079421997,1417.7188873291016,1118,1
354,quadbright,11.0,5,0,4784.009218215942,4784.0070724487305,1310,1
355,quadbright,12.0,8,1,592.6380157470703,592.6289558410645,1401,1
356,quadbright,13.0,2,1,395.2608108520508,395.2598571777344,1335,1
357,quadbright,14.0,15,0,593.1351184844971,593.1320190429688,847,1
358,quadbright,15.0,5,0,691.2438869476318,691.2350654602051,1201,1
359,quadbright,16.0,8,0,723.8180637359619,723.8149642944336,1090,1
360,quadbright,17.0,12,1,493.5429096221924,493.53909492492676,1377,1
361,quadbright,18.0,9,0,693.190336227417,693.1881904602051,1202,1
362,quadbright,19.0,6,0,923.5858917236328,923.5827922821045,1007,1
363,quadbright,20.0,5,1,692.4657821655273,692.4588680267334,967,1
364,quadbright,21.0,8,0,889.6150588989258,889.611005783081,1417,1
365,quadbright,22.0,11,1,691.1847591400146,691.1799907684326,1485,1
366,quadbright,23.0,2,1,792.3088073730469,792.3047542572021,1491,1
367,quadbright,24.0,8,0,692.741870880127,692.7368640899658,848,1
368,quadbright,25.0,12,1,691.2469863891602,691.241979598999,1403,1
369,quadbright,26.0,8,0,889.0900611877441,889.0860080718994,1292,1
370,quadbright,27.0,16,1,692.1899318695068,692.1830177307129,1317,1
371,quadbright,28.0,15,0,890.8569812774658,890.8541202545166,1184,1
372,quadbright,29.0,18,1,990.1680946350098,990.1621341705322,853,1
373,quadbright,30.0,17,0,495.47600746154785,495.4690933227539,1205,1
374,quadbright,5.0,5,1,96.99201583862305,494.858980178833,1213,1
375,quadbright,6.0,5,1,493.99304389953613,493.9899444580078,1433,1
376,quadbright,7.0,5,1,493.6537742614746,493.64566802978516,1331,1
377,quadbright,8.0,5,1,97.6250171661377,491.93620681762695,870,1
378,quadbright,9.0,9,1,594.8400497436523,594.8331356048584,1171,1
379,quadbright,10.0,1,0,295.9129810333252,4095.8878993988037,950,1
380,quadbright,11.0,8,1,693.3588981628418,693.3560371398926,854,1
381,quadbright,12.0,6,0,893.6231136322021,893.6190605163574,1476,1
382,quadbright,13.0,1,0,893.4006690979004,893.3980464935303,846,1
383,quadbright,14.0,17,1,493.0741786956787,493.0722713470459,1094,1
384,quadbright,15.0,8,1,595.8080291748047,595.8051681518555,864,1
385,quadbright,16.0,9,1,526.1650085449219,526.1521339416504,1073,1
386,quadbright,17.0,12,1,726.6387939453125,726.6349792480469,1448,1
387,quadbright,18.0,11,1,823.2769966125488,823.275089263916,952,1
388,quadbright,19.0,8,0,625.2827644348145,625.2799034118652,1413,1
389,quadbright,20.0,5,0,493.61705780029297,493.61515045166016,1230,1
390,quadbright,21.0,9,0,493.49093437194824,493.4840202331543,1486,1
391,quadbright,22.0,9,1,594.7718620300293,594.7678089141846,1107,1
392,quadbright,23.0,1,0,498.31509590148926,498.31223487854004,1095,1
393,quadbright,24.0,9,0,922.8508472442627,922.8439331054688,910,1
394,quadbright,25.0,11,1,590.9831523895264,590.980052947998,1198,1
395,quadbright,26.0,9,0,592.2110080718994,592.2060012817383,1410,1
396,quadbright,27.0,15,1,626.2328624725342,626.227855682373,1214,1
397,quadbright,28.0,16,1,623.6560344696045,623.6550807952881,943,1
